,Dataset_ID,SubjectNumber,Subject,Run,Trial,RT,Fixation_Rate,Right_Fixation,Right_nFixation,Unchosen_nFixations,Unchosen_Fixation,Chosen_Fixation,Chosen_nFixations,Left_nFixations,Left_Fixation,Total_Fixation_Duration,Total_nFixations,MoralDiffRmL,MoralDiffLmR,MoralDiff,Consistent_MoralDiff,SupportDifference,supportDiffReAdj,Issue_left,Issue_right,LeftChoice,LeftChoice_num,ProtestView,Support_left,Support_right,supportChosenReAdj,supportUnchosenReAdj,LeftSupportAdj,Moral_left,Moral_right,maxMoral,,unchosenMoral,chosenMoral,consistent,Age,age_z,Gender,gender,Edu,edu,Income,income,Relig,PartyRegistration,PartyRegistration_4_TEXT,PartyAlignment,partyAlignment,PoliticalSocial,PoliticalEcon,PoliticalEngagement,politicalEngagement,JS1,JS2,JS3,JS4,JS5,JS6,JS7,JS8,JS_sum,DUREL1_ORA,DUREL2_NORA,DUREL3_IR1,DUREL4_IR2,DUREL5_IR3,DUREL_sum,unchosenFamiliar,chosenFamiliar,Familiar1,Familiar2,maxMoral_Familiar
1,PMM002-1-1,2,PMM002,1,1,2848,NA,NA,NA,NA,NA,NA,NA,NA,NA,NA,NA,1.5,-1.5,1.5,1.5,6,6,Mandatory drug tests for welfare recipients,Detention of migrant children,0,0,-1,6,0,3,-3,6,3,4.5,4.5,,3,4.5,1,20,-0.448011825,Female,1,"Some college, but no degree",14,"$50,000-$74,999",3,Unaffiliated,None,,Independent,3,Slightly liberal,Moderate,Often,3,4,0,4,0,2,0,4,4,18,1,1,1,4,1,8,2,3,2,3,3
2,PMM002-1-10,2,PMM002,1,10,3513,NA,NA,NA,NA,NA,NA,NA,NA,NA,NA,NA,0,0,0,0,6,6,Build southern border wall,Legalization of marijuana,0,0,1,0,6,3,-3,-6,4,4,4,,4,4,1,20,-0.448011825,Female,1,"Some college, but no degree",14,"$50,000-$74,999",3,Unaffiliated,None,,Independent,3,Slightly liberal,Moderate,Often,3,4,0,4,0,2,0,4,4,18,1,1,1,4,1,8,3,3,3,3,3
3,PMM002-1-12,2,PMM002,1,12,3107,NA,NA,NA,NA,NA,NA,NA,NA,NA,NA,NA,-0.5,0.5,0.5,0.5,6,6,Ban on research with animals,Hardening schools/Arming teachers,1,1,1,6,0,3,-3,6,4,3.5,4,,3.5,4,1,20,-0.448011825,Female,1,"Some college, but no degree",14,"$50,000-$74,999",3,Unaffiliated,None,,Independent,3,Slightly liberal,Moderate,Often,3,4,0,4,0,2,0,4,4,18,1,1,1,4,1,8,2,3,3,2,3
4,PMM002-1-13,2,PMM002,1,13,2877,NA,NA,NA,NA,NA,NA,NA,NA,NA,NA,NA,-1.5,1.5,1.5,1.5,2,2,Defund the police,Mask mandates,1,1,1,3,1,0,-2,2,4,2.5,4,,2.5,4,1,20,-0.448011825,Female,1,"Some college, but no degree",14,"$50,000-$74,999",3,Unaffiliated,None,,Independent,3,Slightly liberal,Moderate,Often,3,4,0,4,0,2,0,4,4,18,1,1,1,4,1,8,2,3,3,2,3
5,PMM002-1-14,2,PMM002,1,14,2965,NA,NA,NA,NA,NA,NA,NA,NA,NA,NA,NA,-1.5,1.5,1.5,1.5,3,3,Defund Planned Parenthood,Gun-free campus police,1,1,-1,0,3,3,0,3,3.5,2,3.5,,2,3.5,1,20,-0.448011825,Female,1,"Some college, but no degree",14,"$50,000-$74,999",3,Unaffiliated,None,,Independent,3,Slightly liberal,Moderate,Often,3,4,0,4,0,2,0,4,4,18,1,1,1,4,1,8,2,3,3,2,3
6,PMM002-1-15,2,PMM002,1,15,2695,NA,NA,NA,NA,NA,NA,NA,NA,NA,NA,NA,-1.5,1.5,1.5,1.5,3,3,Increased Gun regulations,Gun-free campus police,1,1,1,6,3,3,0,3,3.5,2,3.5,,2,3.5,1,20,-0.448011825,Female,1,"Some college, but no degree",14,"$50,000-$74,999",3,Unaffiliated,None,,Independent,3,Slightly liberal,Moderate,Often,3,4,0,4,0,2,0,4,4,18,1,1,1,4,1,8,2,3,3,2,3
7,PMM002-1-19,2,PMM002,1,19,2847,NA,NA,NA,NA,NA,NA,NA,NA,NA,NA,NA,0,0,0,0,1,-1,Gun-free campus police,Raise the minimum wage,1,1,1,3,4,0,1,-1,2,2,2,,2,2,0,20,-0.448011825,Female,1,"Some college, but no degree",14,"$50,000-$74,999",3,Unaffiliated,None,,Independent,3,Slightly liberal,Moderate,Often,3,4,0,4,0,2,0,4,4,18,1,1,1,4,1,8,3,2,2,3,3
8,PMM002-1-2,2,PMM002,1,2,2895,NA,NA,NA,NA,NA,NA,NA,NA,NA,NA,NA,0,0,0,0,6,6,Detention of migrant children,Black Lives Matter,1,1,-1,0,6,3,-3,6,4.5,4.5,4.5,,4.5,4.5,1,20,-0.448011825,Female,1,"Some college, but no degree",14,"$50,000-$74,999",3,Unaffiliated,None,,Independent,3,Slightly liberal,Moderate,Often,3,4,0,4,0,2,0,4,4,18,1,1,1,4,1,8,3,3,3,3,3
9,PMM002-1-21,2,PMM002,1,21,3133,NA,NA,NA,NA,NA,NA,NA,NA,NA,NA,NA,-2,2,-2,-2,3,3,War on Drugs,Gun-free campus police,0,0,1,0,3,0,-3,-3,4,2,4,,4,2,1,20,-0.448011825,Female,1,"Some college, but no degree",14,"$50,000-$74,999",3,Unaffiliated,None,,Independent,3,Slightly liberal,Moderate,Often,3,4,0,4,0,2,0,4,4,18,1,1,1,4,1,8,4,2,4,2,4
10,PMM002-1-22,2,PMM002,1,22,2318,NA,NA,NA,NA,NA,NA,NA,NA,NA,NA,NA,-2.5,2.5,2.5,2.5,3,3,Stop police brutality,Gun-free campus police,1,1,1,6,3,3,0,3,4.5,2,4.5,,2,4.5,1,20,-0.448011825,Female,1,"Some college, but no degree",14,"$50,000-$74,999",3,Unaffiliated,None,,Independent,3,Slightly liberal,Moderate,Often,3,4,0,4,0,2,0,4,4,18,1,1,1,4,1,8,2,3,3,2,3
11,PMM002-1-3,2,PMM002,1,3,3108,NA,NA,NA,NA,NA,NA,NA,NA,NA,NA,NA,-1,1,1,1,3,3,Abortion rights,Defund the police,1,1,1,6,3,3,0,3,5,4,5,,4,5,1,20,-0.448011825,Female,1,"Some college, but no degree",14,"$50,000-$74,999",3,Unaffiliated,None,,Independent,3,Slightly liberal,Moderate,Often,3,4,0,4,0,2,0,4,4,18,1,1,1,4,1,8,3,3,3,3,3
12,PMM002-1-5,2,PMM002,1,5,3120,NA,NA,NA,NA,NA,NA,NA,NA,NA,NA,NA,-0.5,0.5,-0.5,-0.5,6,6,War on Drugs,Mandatory training on sexual consent,0,0,1,0,6,3,-3,-6,4,3.5,4,,4,3.5,1,20,-0.448011825,Female,1,"Some college, but no degree",14,"$50,000-$74,999",3,Unaffiliated,None,,Independent,3,Slightly liberal,Moderate,Often,3,4,0,4,0,2,0,4,4,18,1,1,1,4,1,8,4,3,4,3,4
13,PMM002-1-7,2,PMM002,1,7,2164,NA,NA,NA,NA,NA,NA,NA,NA,NA,NA,NA,-1.5,1.5,1.5,1.5,6,6,Affirmative action,Bathrooms restricted based on biological sex,1,1,1,6,0,3,-3,6,5,3.5,5,,3.5,5,1,20,-0.448011825,Female,1,"Some college, but no degree",14,"$50,000-$74,999",3,Unaffiliated,None,,Independent,3,Slightly liberal,Moderate,Often,3,4,0,4,0,2,0,4,4,18,1,1,1,4,1,8,3,4,4,3,4
14,PMM002-1-8,2,PMM002,1,8,2978,NA,NA,NA,NA,NA,NA,NA,NA,NA,NA,NA,-0.5,0.5,0.5,0.5,3,3,Remove police from schools,Defund the police,1,1,1,6,3,3,0,3,4.5,4,4.5,,4,4.5,1,20,-0.448011825,Female,1,"Some college, but no degree",14,"$50,000-$74,999",3,Unaffiliated,None,,Independent,3,Slightly liberal,Moderate,Often,3,4,0,4,0,2,0,4,4,18,1,1,1,4,1,8,3,4,4,3,4
15,PMM002-2-10,2,PMM002,2,10,2558,NA,NA,NA,NA,NA,NA,NA,NA,NA,NA,NA,0.5,-0.5,-0.5,0.5,1,-1,Raise the minimum wage,Mandatory vaccinations,1,1,1,4,5,3,-3,-1,2,2.5,2.5,,2.5,2,0,20,-0.448011825,Female,1,"Some college, but no degree",14,"$50,000-$74,999",3,Unaffiliated,None,,Independent,3,Slightly liberal,Moderate,Often,3,4,0,4,0,2,0,4,4,18,1,1,1,4,1,8,4,3,3,4,4
16,PMM002-2-11,2,PMM002,2,11,2892,NA,NA,NA,NA,NA,NA,NA,NA,NA,NA,NA,-2,2,2,2,5,5,Remove public Confederate memorials,Mask mandates,1,1,1,6,1,2,-2,5,4.5,2.5,4.5,,2.5,4.5,1,20,-0.448011825,Female,1,"Some college, but no degree",14,"$50,000-$74,999",3,Unaffiliated,None,,Independent,3,Slightly liberal,Moderate,Often,3,4,0,4,0,2,0,4,4,18,1,1,1,4,1,8,2,4,4,2,4
17,PMM002-2-16,2,PMM002,2,16,2608,NA,NA,NA,NA,NA,NA,NA,NA,NA,NA,NA,2,-2,-2,-2,4,4,Raise the minimum wage,War on Drugs,1,1,1,4,0,1,3,4,2,4,4,,4,2,1,20,-0.448011825,Female,1,"Some college, but no degree",14,"$50,000-$74,999",3,Unaffiliated,None,,Independent,3,Slightly liberal,Moderate,Often,3,4,0,4,0,2,0,4,4,18,1,1,1,4,1,8,4,3,3,4,4
18,PMM002-2-2,2,PMM002,2,2,2083,NA,NA,NA,NA,NA,NA,NA,NA,NA,NA,NA,1.5,-1.5,-1.5,1.5,2,-2,Gun-free campus police,Physician-assisted suicide,1,1,1,3,5,0,3,-2,2,3.5,3.5,,3.5,2,0,20,-0.448011825,Female,1,"Some college, but no degree",14,"$50,000-$74,999",3,Unaffiliated,None,,Independent,3,Slightly liberal,Moderate,Often,3,4,0,4,0,2,0,4,4,18,1,1,1,4,1,8,3,2,2,3,3
19,PMM002-2-21,2,PMM002,2,21,2253,NA,NA,NA,NA,NA,NA,NA,NA,NA,NA,NA,-1,1,1,1,6,6,Abolishing private prisons,Build southern border wall,1,1,1,6,0,0,-3,6,5,4,5,,4,5,1,20,-0.448011825,Female,1,"Some college, but no degree",14,"$50,000-$74,999",3,Unaffiliated,None,,Independent,3,Slightly liberal,Moderate,Often,3,4,0,4,0,2,0,4,4,18,1,1,1,4,1,8,3,4,4,3,4
20,PMM002-2-24,2,PMM002,2,24,2369,NA,NA,NA,NA,NA,NA,NA,NA,NA,NA,NA,0.5,-0.5,-0.5,-0.5,3,3,Increased Gun regulations,Defund the police,1,1,1,6,3,3,1,3,3.5,4,4,,4,3.5,1,20,-0.448011825,Female,1,"Some college, but no degree",14,"$50,000-$74,999",3,Unaffiliated,None,,Independent,3,Slightly liberal,Moderate,Often,3,4,0,4,0,2,0,4,4,18,1,1,1,4,1,8,3,3,3,3,3
21,PMM002-2-3,2,PMM002,2,3,2265,NA,NA,NA,NA,NA,NA,NA,NA,NA,NA,NA,-2.5,2.5,2.5,2.5,5,5,Abolishing private prisons,Mask mandates,1,1,1,6,1,2,-3,5,5,2.5,5,,2.5,5,1,20,-0.448011825,Female,1,"Some college, but no degree",14,"$50,000-$74,999",3,Unaffiliated,None,,Independent,3,Slightly liberal,Moderate,Often,3,4,0,4,0,2,0,4,4,18,1,1,1,4,1,8,2,4,4,2,4
22,PMM002-2-4,2,PMM002,2,4,2244,NA,NA,NA,NA,NA,NA,NA,NA,NA,NA,NA,-0.5,0.5,-0.5,-0.5,2,2,Mask mandates,Gun-free campus police,0,0,1,1,3,1,3,-2,2.5,2,2.5,,2.5,2,1,20,-0.448011825,Female,1,"Some college, but no degree",14,"$50,000-$74,999",3,Unaffiliated,None,,Independent,3,Slightly liberal,Moderate,Often,3,4,0,4,0,2,0,4,4,18,1,1,1,4,1,8,2,2,2,2,2
23,PMM002-2-5,2,PMM002,2,5,2482,NA,NA,NA,NA,NA,NA,NA,NA,NA,NA,NA,-1,1,-1,1,3,-3,Mandatory drug tests for welfare recipients,Gun-free campus police,0,0,1,6,3,1,2,3,3,2,3,,3,2,0,20,-0.448011825,Female,1,"Some college, but no degree",14,"$50,000-$74,999",3,Unaffiliated,None,,Independent,3,Slightly liberal,Moderate,Often,3,4,0,4,0,2,0,4,4,18,1,1,1,4,1,8,2,2,2,2,2
24,PMM002-2-6,2,PMM002,2,6,3937,NA,NA,NA,NA,NA,NA,NA,NA,NA,NA,NA,0.5,-0.5,-0.5,-0.5,5,5,Dorms determined by gender identity,Black Lives Matter,1,1,-1,1,6,3,-2,5,4,4.5,4.5,,4.5,4,1,20,-0.448011825,Female,1,"Some college, but no degree",14,"$50,000-$74,999",3,Unaffiliated,None,,Independent,3,Slightly liberal,Moderate,Often,3,4,0,4,0,2,0,4,4,18,1,1,1,4,1,8,3,1,1,3,3
25,PMM002-2-7,2,PMM002,2,7,2758,NA,NA,NA,NA,NA,NA,NA,NA,NA,NA,NA,1.5,-1.5,-1.5,1.5,2,-2,Raise the minimum wage,Student worker unionization,1,1,1,4,6,1,-3,-2,2,3.5,3.5,,3.5,2,0,20,-0.448011825,Female,1,"Some college, but no degree",14,"$50,000-$74,999",3,Unaffiliated,None,,Independent,3,Slightly liberal,Moderate,Often,3,4,0,4,0,2,0,4,4,18,1,1,1,4,1,8,3,3,3,3,3
26,PMM002-3-11,2,PMM002,3,11,2756,NA,NA,NA,NA,NA,NA,NA,NA,NA,NA,NA,0,0,0,0,5,5,Legalization of marijuana,Dorms determined by gender identity,0,0,-1,6,1,3,0,-5,4,4,4,,4,4,1,20,-0.448011825,Female,1,"Some college, but no degree",14,"$50,000-$74,999",3,Unaffiliated,None,,Independent,3,Slightly liberal,Moderate,Often,3,4,0,4,0,2,0,4,4,18,1,1,1,4,1,8,3,1,3,1,1
27,PMM002-3-12,2,PMM002,3,12,2806,NA,NA,NA,NA,NA,NA,NA,NA,NA,NA,NA,2.5,-2.5,-2.5,2.5,1,-1,Mandatory vaccinations,Abortion rights,1,1,1,5,6,3,-3,-1,2.5,5,5,,5,2.5,0,20,-0.448011825,Female,1,"Some college, but no degree",14,"$50,000-$74,999",3,Unaffiliated,None,,Independent,3,Slightly liberal,Moderate,Often,3,4,0,4,0,2,0,4,4,18,1,1,1,4,1,8,3,4,4,3,3
28,PMM002-3-13,2,PMM002,3,13,3361,NA,NA,NA,NA,NA,NA,NA,NA,NA,NA,NA,-1,1,1,1,6,6,War on Drugs,Mandatory drug tests for welfare recipients,1,1,-1,0,6,3,-3,6,4,3,4,,3,4,1,20,-0.448011825,Female,1,"Some college, but no degree",14,"$50,000-$74,999",3,Unaffiliated,None,,Independent,3,Slightly liberal,Moderate,Often,3,4,0,4,0,2,0,4,4,18,1,1,1,4,1,8,2,4,4,2,4
29,PMM002-3-14,2,PMM002,3,14,3766,NA,NA,NA,NA,NA,NA,NA,NA,NA,NA,NA,0,0,0,0,3,3,Defund the police,Build southern border wall,0,0,-1,3,0,3,-3,-3,4,4,4,,4,4,1,20,-0.448011825,Female,1,"Some college, but no degree",14,"$50,000-$74,999",3,Unaffiliated,None,,Independent,3,Slightly liberal,Moderate,Often,3,4,0,4,0,2,0,4,4,18,1,1,1,4,1,8,3,3,3,3,3
30,PMM002-3-15,2,PMM002,3,15,2652,NA,NA,NA,NA,NA,NA,NA,NA,NA,NA,NA,-0.5,0.5,-0.5,-0.5,5,5,Dorms determined by gender identity,Increased Gun regulations,0,0,1,1,6,3,-3,-5,4,3.5,4,,4,3.5,1,20,-0.448011825,Female,1,"Some college, but no degree",14,"$50,000-$74,999",3,Unaffiliated,None,,Independent,3,Slightly liberal,Moderate,Often,3,4,0,4,0,2,0,4,4,18,1,1,1,4,1,8,1,3,1,3,1
31,PMM002-3-16,2,PMM002,3,16,2290,NA,NA,NA,NA,NA,NA,NA,NA,NA,NA,NA,1.5,-1.5,-1.5,-1.5,1,1,Mask mandates,On campus concealed carry,1,1,1,1,0,3,-3,1,2.5,4,4,,4,2.5,1,20,-0.448011825,Female,1,"Some college, but no degree",14,"$50,000-$74,999",3,Unaffiliated,None,,Independent,3,Slightly liberal,Moderate,Often,3,4,0,4,0,2,0,4,4,18,1,1,1,4,1,8,1,2,2,1,1
32,PMM002-3-18,2,PMM002,3,18,3457,NA,NA,NA,NA,NA,NA,NA,NA,NA,NA,NA,-0.5,0.5,-0.5,-0.5,1,1,Dorms determined by gender identity,Bathrooms restricted based on biological sex,0,0,-1,1,0,3,-3,-1,4,3.5,4,,4,3.5,1,20,-0.448011825,Female,1,"Some college, but no degree",14,"$50,000-$74,999",3,Unaffiliated,None,,Independent,3,Slightly liberal,Moderate,Often,3,4,0,4,0,2,0,4,4,18,1,1,1,4,1,8,1,3,1,3,1
33,PMM002-3-19,2,PMM002,3,19,2143,NA,NA,NA,NA,NA,NA,NA,NA,NA,NA,NA,-0.5,0.5,-0.5,-0.5,4,4,Dorms determined by gender identity,Physician-assisted suicide,0,0,1,1,5,3,0,-4,4,3.5,4,,4,3.5,1,20,-0.448011825,Female,1,"Some college, but no degree",14,"$50,000-$74,999",3,Unaffiliated,None,,Independent,3,Slightly liberal,Moderate,Often,3,4,0,4,0,2,0,4,4,18,1,1,1,4,1,8,1,3,1,3,1
34,PMM002-3-2,2,PMM002,3,2,2578,NA,NA,NA,NA,NA,NA,NA,NA,NA,NA,NA,0,0,0,0,6,6,Mandatory training on sexual consent,Defund Planned Parenthood,1,1,1,6,0,0,-3,6,3.5,3.5,3.5,,3.5,3.5,1,20,-0.448011825,Female,1,"Some college, but no degree",14,"$50,000-$74,999",3,Unaffiliated,None,,Independent,3,Slightly liberal,Moderate,Often,3,4,0,4,0,2,0,4,4,18,1,1,1,4,1,8,3,3,3,3,3
35,PMM002-3-20,2,PMM002,3,20,3296,NA,NA,NA,NA,NA,NA,NA,NA,NA,NA,NA,2,-2,2,2,3,3,Gun-free campus police,Climate change legislation,0,0,1,3,6,0,-3,-3,2,4,4,,2,4,1,20,-0.448011825,Female,1,"Some college, but no degree",14,"$50,000-$74,999",3,Unaffiliated,None,,Independent,3,Slightly liberal,Moderate,Often,3,4,0,4,0,2,0,4,4,18,1,1,1,4,1,8,2,3,2,3,3
36,PMM002-3-22,2,PMM002,3,22,2430,NA,NA,NA,NA,NA,NA,NA,NA,NA,NA,NA,2.5,-2.5,-2.5,-2.5,4,4,Raise the minimum wage,Detention of migrant children,1,1,1,4,0,0,-3,4,2,4.5,4.5,,4.5,2,1,20,-0.448011825,Female,1,"Some college, but no degree",14,"$50,000-$74,999",3,Unaffiliated,None,,Independent,3,Slightly liberal,Moderate,Often,3,4,0,4,0,2,0,4,4,18,1,1,1,4,1,8,3,3,3,3,3
37,PMM002-3-23,2,PMM002,3,23,3587,NA,NA,NA,NA,NA,NA,NA,NA,NA,NA,NA,0,0,0,0,5,-5,Physician-assisted suicide,Defund Planned Parenthood,1,1,-1,5,0,3,-3,-5,3.5,3.5,3.5,,3.5,3.5,0,20,-0.448011825,Female,1,"Some college, but no degree",14,"$50,000-$74,999",3,Unaffiliated,None,,Independent,3,Slightly liberal,Moderate,Often,3,4,0,4,0,2,0,4,4,18,1,1,1,4,1,8,3,3,3,3,3
38,PMM002-3-4,2,PMM002,3,4,3677,NA,NA,NA,NA,NA,NA,NA,NA,NA,NA,NA,2,-2,-2,-2,1,1,Mask mandates,Detention of migrant children,1,1,1,1,0,0,-3,1,2.5,4.5,4.5,,4.5,2.5,1,20,-0.448011825,Female,1,"Some college, but no degree",14,"$50,000-$74,999",3,Unaffiliated,None,,Independent,3,Slightly liberal,Moderate,Often,3,4,0,4,0,2,0,4,4,18,1,1,1,4,1,8,3,2,2,3,3
39,PMM002-3-7,2,PMM002,3,7,2862,NA,NA,NA,NA,NA,NA,NA,NA,NA,NA,NA,-1,1,-1,-1,5,5,Detention of migrant children,Physician-assisted suicide,0,0,1,0,5,3,0,-5,4.5,3.5,4.5,,4.5,3.5,1,20,-0.448011825,Female,1,"Some college, but no degree",14,"$50,000-$74,999",3,Unaffiliated,None,,Independent,3,Slightly liberal,Moderate,Often,3,4,0,4,0,2,0,4,4,18,1,1,1,4,1,8,3,3,3,3,3
40,PMM002-3-8,2,PMM002,3,8,3160,NA,NA,NA,NA,NA,NA,NA,NA,NA,NA,NA,2,-2,-2,2,3,-3,Allow alt-right speakers on campus,Mandatory drug tests for welfare recipients,1,1,1,3,6,0,-3,-3,1,3,3,,3,1,0,20,-0.448011825,Female,1,"Some college, but no degree",14,"$50,000-$74,999",3,Unaffiliated,None,,Independent,3,Slightly liberal,Moderate,Often,3,4,0,4,0,2,0,4,4,18,1,1,1,4,1,8,2,3,3,2,2
41,PMM002-4-1,2,PMM002,4,1,3163,NA,NA,NA,NA,NA,NA,NA,NA,NA,NA,NA,2.5,-2.5,-2.5,-2.5,2,2,Raise the minimum wage,Stop police brutality,1,1,-1,4,6,-2,-3,2,2,4.5,4.5,,4.5,2,1,20,-0.448011825,Female,1,"Some college, but no degree",14,"$50,000-$74,999",3,Unaffiliated,None,,Independent,3,Slightly liberal,Moderate,Often,3,4,0,4,0,2,0,4,4,18,1,1,1,4,1,8,3,3,3,3,3
42,PMM002-4-10,2,PMM002,4,10,2156,NA,NA,NA,NA,NA,NA,NA,NA,NA,NA,NA,0.5,-0.5,-0.5,0.5,1,-1,Physician-assisted suicide,Lift COVID lockdowns,1,1,1,5,6,3,-2,-1,3.5,4,4,,4,3.5,0,20,-0.448011825,Female,1,"Some college, but no degree",14,"$50,000-$74,999",3,Unaffiliated,None,,Independent,3,Slightly liberal,Moderate,Often,3,4,0,4,0,2,0,4,4,18,1,1,1,4,1,8,3,3,3,3,3
43,PMM002-4-11,2,PMM002,4,11,2329,NA,NA,NA,NA,NA,NA,NA,NA,NA,NA,NA,-0.5,0.5,-0.5,-0.5,6,6,Affirmative action,Detention of migrant children,0,0,-1,6,0,-2,-3,-6,5,4.5,5,,5,4.5,1,20,-0.448011825,Female,1,"Some college, but no degree",14,"$50,000-$74,999",3,Unaffiliated,None,,Independent,3,Slightly liberal,Moderate,Often,3,4,0,4,0,2,0,4,4,18,1,1,1,4,1,8,4,3,4,3,4
44,PMM002-4-12,2,PMM002,4,12,2010,NA,NA,NA,NA,NA,NA,NA,NA,NA,NA,NA,-2,2,2,2,1,1,Black Lives Matter,Mandatory vaccinations,1,1,1,6,5,3,2,1,4.5,2.5,4.5,,2.5,4.5,1,20,-0.448011825,Female,1,"Some college, but no degree",14,"$50,000-$74,999",3,Unaffiliated,None,,Independent,3,Slightly liberal,Moderate,Often,3,4,0,4,0,2,0,4,4,18,1,1,1,4,1,8,4,3,3,4,3
45,PMM002-4-13,2,PMM002,4,13,2085,NA,NA,NA,NA,NA,NA,NA,NA,NA,NA,NA,0.5,-0.5,0.5,0.5,3,3,Defund the police,Detention of migrant children,0,0,-1,3,0,2,-2,-3,4,4.5,4.5,,4,4.5,1,20,-0.448011825,Female,1,"Some college, but no degree",14,"$50,000-$74,999",3,Unaffiliated,None,,Independent,3,Slightly liberal,Moderate,Often,3,4,0,4,0,2,0,4,4,18,1,1,1,4,1,8,3,3,3,3,3
46,PMM002-4-14,2,PMM002,4,14,3073,NA,NA,NA,NA,NA,NA,NA,NA,NA,NA,NA,-1,1,1,1,1,1,Raise the minimum wage,Allow alt-right speakers on campus,1,1,1,4,3,3,0,1,2,1,2,,1,2,1,20,-0.448011825,Female,1,"Some college, but no degree",14,"$50,000-$74,999",3,Unaffiliated,None,,Independent,3,Slightly liberal,Moderate,Often,3,4,0,4,0,2,0,4,4,18,1,1,1,4,1,8,3,3,3,3,3
47,PMM002-4-15,2,PMM002,4,15,1989,NA,NA,NA,NA,NA,NA,NA,NA,NA,NA,NA,2,-2,-2,-2,5,5,Mandatory vaccinations,Detention of migrant children,1,1,1,5,0,1,-3,5,2.5,4.5,4.5,,4.5,2.5,1,20,-0.448011825,Female,1,"Some college, but no degree",14,"$50,000-$74,999",3,Unaffiliated,None,,Independent,3,Slightly liberal,Moderate,Often,3,4,0,4,0,2,0,4,4,18,1,1,1,4,1,8,3,4,4,3,3
48,PMM002-4-16,2,PMM002,4,16,3893,NA,NA,NA,NA,NA,NA,NA,NA,NA,NA,NA,1,-1,-1,1,3,-3,Mandatory drug tests for welfare recipients,Defund the police,1,1,-1,6,3,-2,3,-3,3,4,4,,4,3,0,20,-0.448011825,Female,1,"Some college, but no degree",14,"$50,000-$74,999",3,Unaffiliated,None,,Independent,3,Slightly liberal,Moderate,Often,3,4,0,4,0,2,0,4,4,18,1,1,1,4,1,8,3,2,2,3,3
49,PMM002-4-18,2,PMM002,4,18,3782,NA,NA,NA,NA,NA,NA,NA,NA,NA,NA,NA,1.5,-1.5,-1.5,-1.5,1,1,Mandatory vaccinations,Legalization of marijuana,1,1,-1,5,6,0,-2,1,2.5,4,4,,4,2.5,1,20,-0.448011825,Female,1,"Some college, but no degree",14,"$50,000-$74,999",3,Unaffiliated,None,,Independent,3,Slightly liberal,Moderate,Often,3,4,0,4,0,2,0,4,4,18,1,1,1,4,1,8,3,4,4,3,3
50,PMM002-4-19,2,PMM002,4,19,3669,NA,NA,NA,NA,NA,NA,NA,NA,NA,NA,NA,0,0,0,0,2,2,Defund the police,Dorms determined by gender identity,0,0,-1,3,1,2,0,-2,4,4,4,,4,4,1,20,-0.448011825,Female,1,"Some college, but no degree",14,"$50,000-$74,999",3,Unaffiliated,None,,Independent,3,Slightly liberal,Moderate,Often,3,4,0,4,0,2,0,4,4,18,1,1,1,4,1,8,3,1,3,1,1
51,PMM002-4-2,2,PMM002,4,2,2448,NA,NA,NA,NA,NA,NA,NA,NA,NA,NA,NA,-3,3,3,3,2,2,Abolishing private prisons,Raise the minimum wage,1,1,1,6,4,2,-3,2,5,2,5,,2,5,1,20,-0.448011825,Female,1,"Some college, but no degree",14,"$50,000-$74,999",3,Unaffiliated,None,,Independent,3,Slightly liberal,Moderate,Often,3,4,0,4,0,2,0,4,4,18,1,1,1,4,1,8,3,4,4,3,4
52,PMM002-4-20,2,PMM002,4,20,2813,NA,NA,NA,NA,NA,NA,NA,NA,NA,NA,NA,0.5,-0.5,0.5,0.5,1,1,Dorms determined by gender identity,Detention of migrant children,0,0,-1,1,0,3,2,-1,4,4.5,4.5,,4,4.5,1,20,-0.448011825,Female,1,"Some college, but no degree",14,"$50,000-$74,999",3,Unaffiliated,None,,Independent,3,Slightly liberal,Moderate,Often,3,4,0,4,0,2,0,4,4,18,1,1,1,4,1,8,1,3,1,3,3
53,PMM002-4-21,2,PMM002,4,21,2845,NA,NA,NA,NA,NA,NA,NA,NA,NA,NA,NA,-1.5,1.5,-1.5,-1.5,4,4,Bathrooms restricted based on biological sex,Raise the minimum wage,0,0,1,0,4,1,-3,-4,3.5,2,3.5,,3.5,2,1,20,-0.448011825,Female,1,"Some college, but no degree",14,"$50,000-$74,999",3,Unaffiliated,None,,Independent,3,Slightly liberal,Moderate,Often,3,4,0,4,0,2,0,4,4,18,1,1,1,4,1,8,3,3,3,3,3
54,PMM002-4-22,2,PMM002,4,22,3629,NA,NA,NA,NA,NA,NA,NA,NA,NA,NA,NA,2,-2,2,-2,1,-1,Raise the minimum wage,Defund the police,0,0,1,4,3,0,1,1,2,4,4,,2,4,0,20,-0.448011825,Female,1,"Some college, but no degree",14,"$50,000-$74,999",3,Unaffiliated,None,,Independent,3,Slightly liberal,Moderate,Often,3,4,0,4,0,2,0,4,4,18,1,1,1,4,1,8,3,3,3,3,3
55,PMM002-4-23,2,PMM002,4,23,2479,NA,NA,NA,NA,NA,NA,NA,NA,NA,NA,NA,0,0,0,0,1,-1,Student worker unionization,Physician-assisted suicide,0,0,1,6,5,2,3,1,3.5,3.5,3.5,,3.5,3.5,0,20,-0.448011825,Female,1,"Some college, but no degree",14,"$50,000-$74,999",3,Unaffiliated,None,,Independent,3,Slightly liberal,Moderate,Often,3,4,0,4,0,2,0,4,4,18,1,1,1,4,1,8,3,3,3,3,3
56,PMM002-4-5,2,PMM002,4,5,1842,NA,NA,NA,NA,NA,NA,NA,NA,NA,NA,NA,0.5,-0.5,-0.5,0.5,1,-1,Mandatory vaccinations,Mandatory drug tests for welfare recipients,1,1,1,5,6,0,3,-1,2.5,3,3,,3,2.5,0,20,-0.448011825,Female,1,"Some college, but no degree",14,"$50,000-$74,999",3,Unaffiliated,None,,Independent,3,Slightly liberal,Moderate,Often,3,4,0,4,0,2,0,4,4,18,1,1,1,4,1,8,2,4,4,2,2
57,PMM002-4-6,2,PMM002,4,6,2911,NA,NA,NA,NA,NA,NA,NA,NA,NA,NA,NA,1,-1,1,1,6,6,Mandatory training on sexual consent,Detention of migrant children,0,0,-1,6,0,2,-3,-6,3.5,4.5,4.5,,3.5,4.5,1,20,-0.448011825,Female,1,"Some college, but no degree",14,"$50,000-$74,999",3,Unaffiliated,None,,Independent,3,Slightly liberal,Moderate,Often,3,4,0,4,0,2,0,4,4,18,1,1,1,4,1,8,3,3,3,3,3
58,PMM002-4-7,2,PMM002,4,7,3355,NA,NA,NA,NA,NA,NA,NA,NA,NA,NA,NA,-1.5,1.5,1.5,-1.5,1,-1,Physician-assisted suicide,Raise the minimum wage,1,1,-1,5,4,2,3,-1,3.5,2,3.5,,2,3.5,0,20,-0.448011825,Female,1,"Some college, but no degree",14,"$50,000-$74,999",3,Unaffiliated,None,,Independent,3,Slightly liberal,Moderate,Often,3,4,0,4,0,2,0,4,4,18,1,1,1,4,1,8,3,3,3,3,3
59,PMM002-4-8,2,PMM002,4,8,2845,NA,NA,NA,NA,NA,NA,NA,NA,NA,NA,NA,1.5,-1.5,-1.5,-1.5,2,2,Mandatory vaccinations,Defund the police,1,1,1,5,3,3,-3,2,2.5,4,4,,4,2.5,1,20,-0.448011825,Female,1,"Some college, but no degree",14,"$50,000-$74,999",3,Unaffiliated,None,,Independent,3,Slightly liberal,Moderate,Often,3,4,0,4,0,2,0,4,4,18,1,1,1,4,1,8,3,4,4,3,3
60,PMM002-4-9,2,PMM002,4,9,2390,NA,NA,NA,NA,NA,NA,NA,NA,NA,NA,NA,0.5,-0.5,-0.5,-0.5,5,5,Physician-assisted suicide,War on Drugs,1,1,1,5,0,3,0,5,3.5,4,4,,4,3.5,1,20,-0.448011825,Female,1,"Some college, but no degree",14,"$50,000-$74,999",3,Unaffiliated,None,,Independent,3,Slightly liberal,Moderate,Often,3,4,0,4,0,2,0,4,4,18,1,1,1,4,1,8,4,3,3,4,4
61,PMM002-5-1,2,PMM002,5,1,3987,NA,NA,NA,NA,NA,NA,NA,NA,NA,NA,NA,-1,1,-1,-1,4,4,Physician-assisted suicide,Mask mandates,0,0,-1,5,1,2,-3,-4,3.5,2.5,3.5,,3.5,2.5,1,20,-0.448011825,Female,1,"Some college, but no degree",14,"$50,000-$74,999",3,Unaffiliated,None,,Independent,3,Slightly liberal,Moderate,Often,3,4,0,4,0,2,0,4,4,18,1,1,1,4,1,8,3,2,3,2,3
62,PMM002-5-10,2,PMM002,5,10,2995,NA,NA,NA,NA,NA,NA,NA,NA,NA,NA,NA,-3,3,-3,-3,3,3,Climate change legislation,Allow alt-right speakers on campus,0,0,-1,6,3,-1,-3,-3,4,1,4,,4,1,1,20,-0.448011825,Female,1,"Some college, but no degree",14,"$50,000-$74,999",3,Unaffiliated,None,,Independent,3,Slightly liberal,Moderate,Often,3,4,0,4,0,2,0,4,4,18,1,1,1,4,1,8,3,3,3,3,3
63,PMM002-5-12,2,PMM002,5,12,2565,NA,NA,NA,NA,NA,NA,NA,NA,NA,NA,NA,-4,4,4,4,3,3,Abolishing private prisons,Recognize Jerusalem as capital of Israel,1,1,1,6,3,3,1,3,5,1,5,,1,5,1,20,-0.448011825,Female,1,"Some college, but no degree",14,"$50,000-$74,999",3,Unaffiliated,None,,Independent,3,Slightly liberal,Moderate,Often,3,4,0,4,0,2,0,4,4,18,1,1,1,4,1,8,2,4,4,2,4
64,PMM002-5-14,2,PMM002,5,14,2730,NA,NA,NA,NA,NA,NA,NA,NA,NA,NA,NA,-0.5,0.5,-0.5,-0.5,6,6,Lift COVID lockdowns,Bathrooms restricted based on biological sex,0,0,-1,6,0,2,3,-6,4,3.5,4,,4,3.5,1,20,-0.448011825,Female,1,"Some college, but no degree",14,"$50,000-$74,999",3,Unaffiliated,None,,Independent,3,Slightly liberal,Moderate,Often,3,4,0,4,0,2,0,4,4,18,1,1,1,4,1,8,3,3,3,3,3
65,PMM002-5-15,2,PMM002,5,15,3397,NA,NA,NA,NA,NA,NA,NA,NA,NA,NA,NA,1,-1,-1,-1,6,6,Hardening schools/Arming teachers,Black Lives Matter,1,1,-1,0,6,3,-3,6,3.5,4.5,4.5,,4.5,3.5,1,20,-0.448011825,Female,1,"Some college, but no degree",14,"$50,000-$74,999",3,Unaffiliated,None,,Independent,3,Slightly liberal,Moderate,Often,3,4,0,4,0,2,0,4,4,18,1,1,1,4,1,8,3,2,2,3,3
66,PMM002-5-16,2,PMM002,5,16,3150,NA,NA,NA,NA,NA,NA,NA,NA,NA,NA,NA,1.5,-1.5,1.5,1.5,6,6,Defund Planned Parenthood,Abortion rights,0,0,1,0,6,-2,-1,-6,3.5,5,5,,3.5,5,1,20,-0.448011825,Female,1,"Some college, but no degree",14,"$50,000-$74,999",3,Unaffiliated,None,,Independent,3,Slightly liberal,Moderate,Often,3,4,0,4,0,2,0,4,4,18,1,1,1,4,1,8,3,3,3,3,3
67,PMM002-5-18,2,PMM002,5,18,2374,NA,NA,NA,NA,NA,NA,NA,NA,NA,NA,NA,0,0,0,0,6,6,War on Drugs,Legalization of marijuana,0,0,1,0,6,2,0,-6,4,4,4,,4,4,1,20,-0.448011825,Female,1,"Some college, but no degree",14,"$50,000-$74,999",3,Unaffiliated,None,,Independent,3,Slightly liberal,Moderate,Often,3,4,0,4,0,2,0,4,4,18,1,1,1,4,1,8,4,3,4,3,3
68,PMM002-5-19,2,PMM002,5,19,2523,NA,NA,NA,NA,NA,NA,NA,NA,NA,NA,NA,0.5,-0.5,0.5,0.5,6,6,Build southern border wall,Remove police from schools,0,0,1,0,6,-3,0,-6,4,4.5,4.5,,4,4.5,1,20,-0.448011825,Female,1,"Some college, but no degree",14,"$50,000-$74,999",3,Unaffiliated,None,,Independent,3,Slightly liberal,Moderate,Often,3,4,0,4,0,2,0,4,4,18,1,1,1,4,1,8,3,4,3,4,4
69,PMM002-5-20,2,PMM002,5,20,2958,NA,NA,NA,NA,NA,NA,NA,NA,NA,NA,NA,-1,1,-1,-1,6,6,Affirmative action,On campus concealed carry,0,0,-1,6,0,-2,-3,-6,5,4,5,,5,4,1,20,-0.448011825,Female,1,"Some college, but no degree",14,"$50,000-$74,999",3,Unaffiliated,None,,Independent,3,Slightly liberal,Moderate,Often,3,4,0,4,0,2,0,4,4,18,1,1,1,4,1,8,4,1,4,1,4
70,PMM002-5-22,2,PMM002,5,22,2634,NA,NA,NA,NA,NA,NA,NA,NA,NA,NA,NA,2.5,-2.5,2.5,2.5,3,3,Religious exemptions for discrimination laws,Increased Gun regulations,0,0,1,3,6,3,2,-3,1,3.5,3.5,,1,3.5,1,20,-0.448011825,Female,1,"Some college, but no degree",14,"$50,000-$74,999",3,Unaffiliated,None,,Independent,3,Slightly liberal,Moderate,Often,3,4,0,4,0,2,0,4,4,18,1,1,1,4,1,8,1,3,1,3,3
71,PMM002-5-23,2,PMM002,5,23,3180,NA,NA,NA,NA,NA,NA,NA,NA,NA,NA,NA,3,-3,-3,-3,3,3,Recognize Jerusalem as capital of Israel,War on Drugs,1,1,1,3,0,2,-3,3,1,4,4,,4,1,1,20,-0.448011825,Female,1,"Some college, but no degree",14,"$50,000-$74,999",3,Unaffiliated,None,,Independent,3,Slightly liberal,Moderate,Often,3,4,0,4,0,2,0,4,4,18,1,1,1,4,1,8,4,2,2,4,4
72,PMM002-5-24,2,PMM002,5,24,2909,NA,NA,NA,NA,NA,NA,NA,NA,NA,NA,NA,-3,3,-3,-3,3,3,Ban on research with animals,Allow alt-right speakers on campus,0,0,-1,6,3,3,-2,-3,4,1,4,,4,1,1,20,-0.448011825,Female,1,"Some college, but no degree",14,"$50,000-$74,999",3,Unaffiliated,None,,Independent,3,Slightly liberal,Moderate,Often,3,4,0,4,0,2,0,4,4,18,1,1,1,4,1,8,3,3,3,3,3
73,PMM002-5-3,2,PMM002,5,3,2632,NA,NA,NA,NA,NA,NA,NA,NA,NA,NA,NA,-1,1,-1,1,2,-2,Mandatory drug tests for welfare recipients,Raise the minimum wage,0,0,1,6,4,2,3,2,3,2,3,,3,2,0,20,-0.448011825,Female,1,"Some college, but no degree",14,"$50,000-$74,999",3,Unaffiliated,None,,Independent,3,Slightly liberal,Moderate,Often,3,4,0,4,0,2,0,4,4,18,1,1,1,4,1,8,2,3,2,3,2
74,PMM002-5-5,2,PMM002,5,5,2327,NA,NA,NA,NA,NA,NA,NA,NA,NA,NA,NA,-2.5,2.5,-2.5,-2.5,3,3,Detention of migrant children,Gun-free campus police,0,0,1,0,3,3,-3,-3,4.5,2,4.5,,4.5,2,1,20,-0.448011825,Female,1,"Some college, but no degree",14,"$50,000-$74,999",3,Unaffiliated,None,,Independent,3,Slightly liberal,Moderate,Often,3,4,0,4,0,2,0,4,4,18,1,1,1,4,1,8,3,2,3,2,3
75,PMM002-5-6,2,PMM002,5,6,2994,NA,NA,NA,NA,NA,NA,NA,NA,NA,NA,NA,2,-2,2,2,2,2,Raise the minimum wage,Ban on research with animals,0,0,1,4,6,3,0,-2,2,4,4,,2,4,1,20,-0.448011825,Female,1,"Some college, but no degree",14,"$50,000-$74,999",3,Unaffiliated,None,,Independent,3,Slightly liberal,Moderate,Often,3,4,0,4,0,2,0,4,4,18,1,1,1,4,1,8,3,3,3,3,3
76,PMM002-5-7,2,PMM002,5,7,2788,NA,NA,NA,NA,NA,NA,NA,NA,NA,NA,NA,-2.5,2.5,-2.5,-2.5,3,3,Hardening schools/Arming teachers,Allow alt-right speakers on campus,0,0,1,0,3,3,0,-3,3.5,1,3.5,,3.5,1,1,20,-0.448011825,Female,1,"Some college, but no degree",14,"$50,000-$74,999",3,Unaffiliated,None,,Independent,3,Slightly liberal,Moderate,Often,3,4,0,4,0,2,0,4,4,18,1,1,1,4,1,8,2,3,2,3,2
77,PMM002-5-8,2,PMM002,5,8,3896,NA,NA,NA,NA,NA,NA,NA,NA,NA,NA,NA,-2.5,2.5,-2.5,-2.5,3,3,Increased Gun regulations,Religious exemptions for discrimination laws,0,0,-1,6,3,1,0,-3,3.5,1,3.5,,3.5,1,1,20,-0.448011825,Female,1,"Some college, but no degree",14,"$50,000-$74,999",3,Unaffiliated,None,,Independent,3,Slightly liberal,Moderate,Often,3,4,0,4,0,2,0,4,4,18,1,1,1,4,1,8,3,1,3,1,3
78,PMM002-5-9,2,PMM002,5,9,2742,NA,NA,NA,NA,NA,NA,NA,NA,NA,NA,NA,3,-3,3,3,3,3,Recognize Jerusalem as capital of Israel,Build southern border wall,0,0,-1,3,0,0,2,-3,1,4,4,,1,4,1,20,-0.448011825,Female,1,"Some college, but no degree",14,"$50,000-$74,999",3,Unaffiliated,None,,Independent,3,Slightly liberal,Moderate,Often,3,4,0,4,0,2,0,4,4,18,1,1,1,4,1,8,2,3,2,3,3
79,PMM004-1-1,4,PMM004,1,1,3006,NA,NA,NA,NA,NA,NA,NA,NA,NA,NA,NA,0,0,0,0,5,-5,Mandatory vaccinations,Cuts to National Parks budget,1,1,-1,5,0,-1,-3,-5,4,4,4,,4,4,0,26,0.749643549,Female,1,"Graduate or professional degree (MA, MS, MBA, PhD, JD, MD, DDS etc.)",18,"$150,000 or more",6,Christianity,Other,Moderate liberal ,Weak Democrat,2,Liberal,Conservative,Sometimes,2,4,5,5,4,5,4,4,4,35,5,5,5,5,4,24,4,4,4,4,4
80,PMM004-1-10,4,PMM004,1,10,2096,NA,NA,NA,NA,NA,NA,NA,NA,NA,NA,NA,0,0,0,0,2,2,Stop police brutality,Expel students with white nationlist views,0,0,-1,6,4,0,1,-2,5,5,5,,5,5,1,26,0.749643549,Female,1,"Graduate or professional degree (MA, MS, MBA, PhD, JD, MD, DDS etc.)",18,"$150,000 or more",6,Christianity,Other,Moderate liberal ,Weak Democrat,2,Liberal,Conservative,Sometimes,2,4,5,5,4,5,4,4,4,35,5,5,5,5,4,24,4,2,4,2,2
81,PMM004-1-11,4,PMM004,1,11,2674,NA,NA,NA,NA,NA,NA,NA,NA,NA,NA,NA,1.5,-1.5,-1.5,-1.5,4,4,Abortion rights,Legalization of marijuana,1,1,1,5,1,3,2,4,2.5,4,4,,4,2.5,1,26,0.749643549,Female,1,"Graduate or professional degree (MA, MS, MBA, PhD, JD, MD, DDS etc.)",18,"$150,000 or more",6,Christianity,Other,Moderate liberal ,Weak Democrat,2,Liberal,Conservative,Sometimes,2,4,5,5,4,5,4,4,4,35,5,5,5,5,4,24,4,4,4,4,4
82,PMM004-1-12,4,PMM004,1,12,2376,NA,NA,NA,NA,NA,NA,NA,NA,NA,NA,NA,-2.5,2.5,2.5,2.5,1,1,Expel students with white nationlist views,Abortion rights,1,1,-1,4,5,2,-3,1,5,2.5,5,,2.5,5,1,26,0.749643549,Female,1,"Graduate or professional degree (MA, MS, MBA, PhD, JD, MD, DDS etc.)",18,"$150,000 or more",6,Christianity,Other,Moderate liberal ,Weak Democrat,2,Liberal,Conservative,Sometimes,2,4,5,5,4,5,4,4,4,35,5,5,5,5,4,24,4,2,2,4,2
83,PMM004-1-13,4,PMM004,1,13,2934,NA,NA,NA,NA,NA,NA,NA,NA,NA,NA,NA,0,0,0,0,1,-1,Student worker unionization,War on Drugs,1,1,1,3,4,1,-1,-1,4,4,4,,4,4,0,26,0.749643549,Female,1,"Graduate or professional degree (MA, MS, MBA, PhD, JD, MD, DDS etc.)",18,"$150,000 or more",6,Christianity,Other,Moderate liberal ,Weak Democrat,2,Liberal,Conservative,Sometimes,2,4,5,5,4,5,4,4,4,35,5,5,5,5,4,24,3,3,3,3,3
84,PMM004-1-14,4,PMM004,1,14,3599,NA,NA,NA,NA,NA,NA,NA,NA,NA,NA,NA,-0.5,0.5,-0.5,0.5,3,-3,Legalization of marijuana,Bathrooms restricted based on biological sex,0,0,-1,1,4,1,0,3,4,3.5,4,,4,3.5,0,26,0.749643549,Female,1,"Graduate or professional degree (MA, MS, MBA, PhD, JD, MD, DDS etc.)",18,"$150,000 or more",6,Christianity,Other,Moderate liberal ,Weak Democrat,2,Liberal,Conservative,Sometimes,2,4,5,5,4,5,4,4,4,35,5,5,5,5,4,24,4,4,4,4,4
85,PMM004-1-15,4,PMM004,1,15,2613,NA,NA,NA,NA,NA,NA,NA,NA,NA,NA,NA,-0.5,0.5,-0.5,0.5,3,-3,Mandatory trigger warnings,Gun-free campus police,0,0,1,5,2,3,-1,3,4,3.5,4,,4,3.5,0,26,0.749643549,Female,1,"Graduate or professional degree (MA, MS, MBA, PhD, JD, MD, DDS etc.)",18,"$150,000 or more",6,Christianity,Other,Moderate liberal ,Weak Democrat,2,Liberal,Conservative,Sometimes,2,4,5,5,4,5,4,4,4,35,5,5,5,5,4,24,4,3,4,3,4
86,PMM004-1-16,4,PMM004,1,16,2813,NA,NA,NA,NA,NA,NA,NA,NA,NA,NA,NA,-0.5,0.5,-0.5,-0.5,2,2,Safe injection locations,Recognize Jerusalem as capital of Israel,0,0,-1,5,3,2,1,-2,3,2.5,3,,3,2.5,1,26,0.749643549,Female,1,"Graduate or professional degree (MA, MS, MBA, PhD, JD, MD, DDS etc.)",18,"$150,000 or more",6,Christianity,Other,Moderate liberal ,Weak Democrat,2,Liberal,Conservative,Sometimes,2,4,5,5,4,5,4,4,4,35,5,5,5,5,4,24,3,2,3,2,3
87,PMM004-1-17,4,PMM004,1,17,2253,NA,NA,NA,NA,NA,NA,NA,NA,NA,NA,NA,2,-2,2,2,5,5,Safe injection locations,Tuition increases,0,0,-1,5,0,-1,2,-5,3,5,5,,3,5,1,26,0.749643549,Female,1,"Graduate or professional degree (MA, MS, MBA, PhD, JD, MD, DDS etc.)",18,"$150,000 or more",6,Christianity,Other,Moderate liberal ,Weak Democrat,2,Liberal,Conservative,Sometimes,2,4,5,5,4,5,4,4,4,35,5,5,5,5,4,24,3,4,3,4,4
88,PMM004-1-18,4,PMM004,1,18,2409,NA,NA,NA,NA,NA,NA,NA,NA,NA,NA,NA,1,-1,1,1,4,4,Raise the minimum wage,Cuts to National Parks budget,0,0,-1,4,0,0,-1,-4,3,4,4,,3,4,1,26,0.749643549,Female,1,"Graduate or professional degree (MA, MS, MBA, PhD, JD, MD, DDS etc.)",18,"$150,000 or more",6,Christianity,Other,Moderate liberal ,Weak Democrat,2,Liberal,Conservative,Sometimes,2,4,5,5,4,5,4,4,4,35,5,5,5,5,4,24,3,4,3,4,4
89,PMM004-1-19,4,PMM004,1,19,2269,NA,NA,NA,NA,NA,NA,NA,NA,NA,NA,NA,-1,1,1,1,1,1,Remove Christopher Columbus statues,Affirmative action,1,1,1,5,4,3,-2,1,4,3,4,,3,4,1,26,0.749643549,Female,1,"Graduate or professional degree (MA, MS, MBA, PhD, JD, MD, DDS etc.)",18,"$150,000 or more",6,Christianity,Other,Moderate liberal ,Weak Democrat,2,Liberal,Conservative,Sometimes,2,4,5,5,4,5,4,4,4,35,5,5,5,5,4,24,3,3,3,3,3
90,PMM004-1-2,4,PMM004,1,2,3675,NA,NA,NA,NA,NA,NA,NA,NA,NA,NA,NA,0,0,0,0,1,1,University Campus should be a Sanctuary,Safe injection locations,1,1,-1,4,5,0,1,1,3,3,3,,3,3,1,26,0.749643549,Female,1,"Graduate or professional degree (MA, MS, MBA, PhD, JD, MD, DDS etc.)",18,"$150,000 or more",6,Christianity,Other,Moderate liberal ,Weak Democrat,2,Liberal,Conservative,Sometimes,2,4,5,5,4,5,4,4,4,35,5,5,5,5,4,24,3,2,2,3,3
91,PMM004-1-20,4,PMM004,1,20,2044,NA,NA,NA,NA,NA,NA,NA,NA,NA,NA,NA,1,-1,-1,-1,4,4,Safe injection locations,Legalization of marijuana,1,1,1,5,1,-1,-2,4,3,4,4,,4,3,1,26,0.749643549,Female,1,"Graduate or professional degree (MA, MS, MBA, PhD, JD, MD, DDS etc.)",18,"$150,000 or more",6,Christianity,Other,Moderate liberal ,Weak Democrat,2,Liberal,Conservative,Sometimes,2,4,5,5,4,5,4,4,4,35,5,5,5,5,4,24,4,3,3,4,4
92,PMM004-1-21,4,PMM004,1,21,2510,NA,NA,NA,NA,NA,NA,NA,NA,NA,NA,NA,1,-1,1,1,1,1,Recognize Jerusalem as capital of Israel,Hardening schools/Arming teachers,0,0,-1,3,2,2,1,-1,2.5,3.5,3.5,,2.5,3.5,1,26,0.749643549,Female,1,"Graduate or professional degree (MA, MS, MBA, PhD, JD, MD, DDS etc.)",18,"$150,000 or more",6,Christianity,Other,Moderate liberal ,Weak Democrat,2,Liberal,Conservative,Sometimes,2,4,5,5,4,5,4,4,4,35,5,5,5,5,4,24,2,3,2,3,3
93,PMM004-1-22,4,PMM004,1,22,2756,NA,NA,NA,NA,NA,NA,NA,NA,NA,NA,NA,-1.5,1.5,1.5,1.5,1,1,Increased Gun regulations,Safe injection locations,1,1,1,6,5,3,-3,1,4.5,3,4.5,,3,4.5,1,26,0.749643549,Female,1,"Graduate or professional degree (MA, MS, MBA, PhD, JD, MD, DDS etc.)",18,"$150,000 or more",6,Christianity,Other,Moderate liberal ,Weak Democrat,2,Liberal,Conservative,Sometimes,2,4,5,5,4,5,4,4,4,35,5,5,5,5,4,24,3,4,4,3,4
94,PMM004-1-23,4,PMM004,1,23,2729,NA,NA,NA,NA,NA,NA,NA,NA,NA,NA,NA,-1.5,1.5,-1.5,-1.5,5,5,Cuts to National Parks budget,Abortion rights,0,0,1,0,5,-3,0,-5,4,2.5,4,,4,2.5,1,26,0.749643549,Female,1,"Graduate or professional degree (MA, MS, MBA, PhD, JD, MD, DDS etc.)",18,"$150,000 or more",6,Christianity,Other,Moderate liberal ,Weak Democrat,2,Liberal,Conservative,Sometimes,2,4,5,5,4,5,4,4,4,35,5,5,5,5,4,24,4,4,4,4,4
95,PMM004-1-24,4,PMM004,1,24,3077,NA,NA,NA,NA,NA,NA,NA,NA,NA,NA,NA,0.5,-0.5,-0.5,-0.5,2,2,On campus concealed carry,Lift COVID lockdowns,1,1,-1,2,4,2,-1,2,3.5,4,4,,4,3.5,1,26,0.749643549,Female,1,"Graduate or professional degree (MA, MS, MBA, PhD, JD, MD, DDS etc.)",18,"$150,000 or more",6,Christianity,Other,Moderate liberal ,Weak Democrat,2,Liberal,Conservative,Sometimes,2,4,5,5,4,5,4,4,4,35,5,5,5,5,4,24,4,2,2,4,4
96,PMM004-1-3,4,PMM004,1,3,3283,NA,NA,NA,NA,NA,NA,NA,NA,NA,NA,NA,0,0,0,0,1,1,Abortion rights,Mandatory drug tests for welfare recipients,0,0,-1,5,4,-1,2,-1,2.5,2.5,2.5,,2.5,2.5,1,26,0.749643549,Female,1,"Graduate or professional degree (MA, MS, MBA, PhD, JD, MD, DDS etc.)",18,"$150,000 or more",6,Christianity,Other,Moderate liberal ,Weak Democrat,2,Liberal,Conservative,Sometimes,2,4,5,5,4,5,4,4,4,35,5,5,5,5,4,24,4,2,4,2,2
97,PMM004-1-4,4,PMM004,1,4,2303,NA,NA,NA,NA,NA,NA,NA,NA,NA,NA,NA,-1,1,-1,-1,1,1,Lift COVID lockdowns,Safe injection locations,0,0,1,4,5,-1,-2,-1,4,3,4,,4,3,1,26,0.749643549,Female,1,"Graduate or professional degree (MA, MS, MBA, PhD, JD, MD, DDS etc.)",18,"$150,000 or more",6,Christianity,Other,Moderate liberal ,Weak Democrat,2,Liberal,Conservative,Sometimes,2,4,5,5,4,5,4,4,4,35,5,5,5,5,4,24,4,3,4,3,4
98,PMM004-1-6,4,PMM004,1,6,2015,NA,NA,NA,NA,NA,NA,NA,NA,NA,NA,NA,-1,1,1,1,6,6,Abolishing fraternities,Cuts to National Parks budget,1,1,1,6,0,1,-1,6,5,4,5,,4,5,1,26,0.749643549,Female,1,"Graduate or professional degree (MA, MS, MBA, PhD, JD, MD, DDS etc.)",18,"$150,000 or more",6,Christianity,Other,Moderate liberal ,Weak Democrat,2,Liberal,Conservative,Sometimes,2,4,5,5,4,5,4,4,4,35,5,5,5,5,4,24,4,4,4,4,4
99,PMM004-1-7,4,PMM004,1,7,2840,NA,NA,NA,NA,NA,NA,NA,NA,NA,NA,NA,-1.5,1.5,1.5,-1.5,3,-3,Cuts to National Parks budget,Recognize Jerusalem as capital of Israel,1,1,1,0,3,3,-1,-3,4,2.5,4,,2.5,4,0,26,0.749643549,Female,1,"Graduate or professional degree (MA, MS, MBA, PhD, JD, MD, DDS etc.)",18,"$150,000 or more",6,Christianity,Other,Moderate liberal ,Weak Democrat,2,Liberal,Conservative,Sometimes,2,4,5,5,4,5,4,4,4,35,5,5,5,5,4,24,2,4,4,2,4
100,PMM004-1-8,4,PMM004,1,8,2014,NA,NA,NA,NA,NA,NA,NA,NA,NA,NA,NA,-1.5,1.5,-1.5,1.5,1,-1,Allow alt-right speakers on campus,Recognize Jerusalem as capital of Israel,0,0,-1,2,3,2,1,1,4,2.5,4,,4,2.5,0,26,0.749643549,Female,1,"Graduate or professional degree (MA, MS, MBA, PhD, JD, MD, DDS etc.)",18,"$150,000 or more",6,Christianity,Other,Moderate liberal ,Weak Democrat,2,Liberal,Conservative,Sometimes,2,4,5,5,4,5,4,4,4,35,5,5,5,5,4,24,3,2,3,2,3
101,PMM004-1-9,4,PMM004,1,9,2729,NA,NA,NA,NA,NA,NA,NA,NA,NA,NA,NA,1,-1,1,1,2,2,Defund the police,Expel students with white nationlist views,0,0,1,2,4,2,-2,-2,4,5,5,,4,5,1,26,0.749643549,Female,1,"Graduate or professional degree (MA, MS, MBA, PhD, JD, MD, DDS etc.)",18,"$150,000 or more",6,Christianity,Other,Moderate liberal ,Weak Democrat,2,Liberal,Conservative,Sometimes,2,4,5,5,4,5,4,4,4,35,5,5,5,5,4,24,4,2,4,2,2
102,PMM004-2-1,4,PMM004,2,1,2249,NA,NA,NA,NA,NA,NA,NA,NA,NA,NA,NA,-1.5,1.5,-1.5,-1.5,1,1,War on Drugs,Abortion rights,0,0,1,4,5,-1,1,-1,4,2.5,4,,4,2.5,1,26,0.749643549,Female,1,"Graduate or professional degree (MA, MS, MBA, PhD, JD, MD, DDS etc.)",18,"$150,000 or more",6,Christianity,Other,Moderate liberal ,Weak Democrat,2,Liberal,Conservative,Sometimes,2,4,5,5,4,5,4,4,4,35,5,5,5,5,4,24,3,4,3,4,3
103,PMM004-2-10,4,PMM004,2,10,1901,NA,NA,NA,NA,NA,NA,NA,NA,NA,NA,NA,0,0,0,0,1,1,Student worker unionization,U.S. drone strikes in Afghanistan,1,1,1,3,2,3,-2,1,4,4,4,,4,4,1,26,0.749643549,Female,1,"Graduate or professional degree (MA, MS, MBA, PhD, JD, MD, DDS etc.)",18,"$150,000 or more",6,Christianity,Other,Moderate liberal ,Weak Democrat,2,Liberal,Conservative,Sometimes,2,4,5,5,4,5,4,4,4,35,5,5,5,5,4,24,3,3,3,3,3
104,PMM004-2-11,4,PMM004,2,11,2896,NA,NA,NA,NA,NA,NA,NA,NA,NA,NA,NA,-1.5,1.5,1.5,-1.5,5,-5,Ban on ethnic Halloween costumes,Defund Planned Parenthood,1,1,-1,6,1,3,-2,-5,5,3.5,5,,3.5,5,0,26,0.749643549,Female,1,"Graduate or professional degree (MA, MS, MBA, PhD, JD, MD, DDS etc.)",18,"$150,000 or more",6,Christianity,Other,Moderate liberal ,Weak Democrat,2,Liberal,Conservative,Sometimes,2,4,5,5,4,5,4,4,4,35,5,5,5,5,4,24,3,4,4,3,4
105,PMM004-2-12,4,PMM004,2,12,2926,NA,NA,NA,NA,NA,NA,NA,NA,NA,NA,NA,0.5,-0.5,-0.5,0.5,6,-6,Increased Gun regulations,Tuition increases,1,1,-1,6,0,-2,-1,-6,4.5,5,5,,5,4.5,0,26,0.749643549,Female,1,"Graduate or professional degree (MA, MS, MBA, PhD, JD, MD, DDS etc.)",18,"$150,000 or more",6,Christianity,Other,Moderate liberal ,Weak Democrat,2,Liberal,Conservative,Sometimes,2,4,5,5,4,5,4,4,4,35,5,5,5,5,4,24,4,4,4,4,4
106,PMM004-2-13,4,PMM004,2,13,3980,NA,NA,NA,NA,NA,NA,NA,NA,NA,NA,NA,-0.5,0.5,-0.5,0.5,1,-1,Student worker unionization,Bathrooms restricted based on biological sex,0,0,-1,3,4,3,0,1,4,3.5,4,,4,3.5,0,26,0.749643549,Female,1,"Graduate or professional degree (MA, MS, MBA, PhD, JD, MD, DDS etc.)",18,"$150,000 or more",6,Christianity,Other,Moderate liberal ,Weak Democrat,2,Liberal,Conservative,Sometimes,2,4,5,5,4,5,4,4,4,35,5,5,5,5,4,24,3,4,3,4,3
107,PMM004-2-14,4,PMM004,2,14,2327,NA,NA,NA,NA,NA,NA,NA,NA,NA,NA,NA,1,-1,-1,-1,2,2,Safe injection locations,Student worker unionization,1,1,1,5,3,2,0,2,3,4,4,,4,3,1,26,0.749643549,Female,1,"Graduate or professional degree (MA, MS, MBA, PhD, JD, MD, DDS etc.)",18,"$150,000 or more",6,Christianity,Other,Moderate liberal ,Weak Democrat,2,Liberal,Conservative,Sometimes,2,4,5,5,4,5,4,4,4,35,5,5,5,5,4,24,3,3,3,3,3
108,PMM004-2-15,4,PMM004,2,15,1778,NA,NA,NA,NA,NA,NA,NA,NA,NA,NA,NA,0,0,0,0,3,3,Student worker unionization,Cuts to National Parks budget,1,1,1,3,0,3,0,3,4,4,4,,4,4,1,26,0.749643549,Female,1,"Graduate or professional degree (MA, MS, MBA, PhD, JD, MD, DDS etc.)",18,"$150,000 or more",6,Christianity,Other,Moderate liberal ,Weak Democrat,2,Liberal,Conservative,Sometimes,2,4,5,5,4,5,4,4,4,35,5,5,5,5,4,24,4,3,3,4,4
109,PMM004-2-16,4,PMM004,2,16,1239,NA,NA,NA,NA,NA,NA,NA,NA,NA,NA,NA,-1,1,1,1,3,3,Abolishing fraternities,Student worker unionization,1,1,1,6,3,0,1,3,5,4,5,,4,5,1,26,0.749643549,Female,1,"Graduate or professional degree (MA, MS, MBA, PhD, JD, MD, DDS etc.)",18,"$150,000 or more",6,Christianity,Other,Moderate liberal ,Weak Democrat,2,Liberal,Conservative,Sometimes,2,4,5,5,4,5,4,4,4,35,5,5,5,5,4,24,3,4,4,3,4
110,PMM004-2-17,4,PMM004,2,17,2968,NA,NA,NA,NA,NA,NA,NA,NA,NA,NA,NA,0.5,-0.5,-0.5,0.5,1,-1,On campus concealed carry,Legalization of marijuana,1,1,-1,2,1,2,1,-1,3.5,4,4,,4,3.5,0,26,0.749643549,Female,1,"Graduate or professional degree (MA, MS, MBA, PhD, JD, MD, DDS etc.)",18,"$150,000 or more",6,Christianity,Other,Moderate liberal ,Weak Democrat,2,Liberal,Conservative,Sometimes,2,4,5,5,4,5,4,4,4,35,5,5,5,5,4,24,4,2,2,4,4
111,PMM004-2-18,4,PMM004,2,18,3164,NA,NA,NA,NA,NA,NA,NA,NA,NA,NA,NA,2.5,-2.5,-2.5,-2.5,2,2,Mandatory drug tests for welfare recipients,Stop police brutality,1,1,-1,4,6,0,-3,2,2.5,5,5,,5,2.5,1,26,0.749643549,Female,1,"Graduate or professional degree (MA, MS, MBA, PhD, JD, MD, DDS etc.)",18,"$150,000 or more",6,Christianity,Other,Moderate liberal ,Weak Democrat,2,Liberal,Conservative,Sometimes,2,4,5,5,4,5,4,4,4,35,5,5,5,5,4,24,4,2,2,4,4
112,PMM004-2-19,4,PMM004,2,19,2437,NA,NA,NA,NA,NA,NA,NA,NA,NA,NA,NA,1,-1,-1,1,2,-2,Religious exemptions for discrimination laws,Legalization of marijuana,1,1,-1,3,1,-1,0,-2,3,4,4,,4,3,0,26,0.749643549,Female,1,"Graduate or professional degree (MA, MS, MBA, PhD, JD, MD, DDS etc.)",18,"$150,000 or more",6,Christianity,Other,Moderate liberal ,Weak Democrat,2,Liberal,Conservative,Sometimes,2,4,5,5,4,5,4,4,4,35,5,5,5,5,4,24,4,3,3,4,4
113,PMM004-2-2,4,PMM004,2,2,2718,NA,NA,NA,NA,NA,NA,NA,NA,NA,NA,NA,2.5,-2.5,2.5,2.5,1,1,Recognize Jerusalem as capital of Israel,Expel students with white nationlist views,0,0,1,3,4,-1,1,-1,2.5,5,5,,2.5,5,1,26,0.749643549,Female,1,"Graduate or professional degree (MA, MS, MBA, PhD, JD, MD, DDS etc.)",18,"$150,000 or more",6,Christianity,Other,Moderate liberal ,Weak Democrat,2,Liberal,Conservative,Sometimes,2,4,5,5,4,5,4,4,4,35,5,5,5,5,4,24,2,2,2,2,2
114,PMM004-2-20,4,PMM004,2,20,3334,NA,NA,NA,NA,NA,NA,NA,NA,NA,NA,NA,0.5,-0.5,-0.5,0.5,2,-2,"Boycott, Divest, and Sanction Israel",Defund Planned Parenthood,1,1,-1,3,1,0,-1,-2,3,3.5,3.5,,3.5,3,0,26,0.749643549,Female,1,"Graduate or professional degree (MA, MS, MBA, PhD, JD, MD, DDS etc.)",18,"$150,000 or more",6,Christianity,Other,Moderate liberal ,Weak Democrat,2,Liberal,Conservative,Sometimes,2,4,5,5,4,5,4,4,4,35,5,5,5,5,4,24,3,1,1,3,3
115,PMM004-2-21,4,PMM004,2,21,2611,NA,NA,NA,NA,NA,NA,NA,NA,NA,NA,NA,-1.5,1.5,1.5,-1.5,1,-1,Detention of migrant children,Defund Planned Parenthood,1,1,1,0,1,3,-2,-1,5,3.5,5,,3.5,5,0,26,0.749643549,Female,1,"Graduate or professional degree (MA, MS, MBA, PhD, JD, MD, DDS etc.)",18,"$150,000 or more",6,Christianity,Other,Moderate liberal ,Weak Democrat,2,Liberal,Conservative,Sometimes,2,4,5,5,4,5,4,4,4,35,5,5,5,5,4,24,3,3,3,3,3
116,PMM004-2-22,4,PMM004,2,22,3600,NA,NA,NA,NA,NA,NA,NA,NA,NA,NA,NA,-0.5,0.5,-0.5,-0.5,1,1,Safe injection locations,Mandatory drug tests for welfare recipients,0,0,-1,5,4,1,-2,-1,3,2.5,3,,3,2.5,1,26,0.749643549,Female,1,"Graduate or professional degree (MA, MS, MBA, PhD, JD, MD, DDS etc.)",18,"$150,000 or more",6,Christianity,Other,Moderate liberal ,Weak Democrat,2,Liberal,Conservative,Sometimes,2,4,5,5,4,5,4,4,4,35,5,5,5,5,4,24,3,2,3,2,3
117,PMM004-2-23,4,PMM004,2,23,3744,NA,NA,NA,NA,NA,NA,NA,NA,NA,NA,NA,-0.5,0.5,-0.5,0.5,2,-2,Physician-assisted suicide,Remove police from schools,0,0,-1,2,4,3,2,2,4,3.5,4,,4,3.5,0,26,0.749643549,Female,1,"Graduate or professional degree (MA, MS, MBA, PhD, JD, MD, DDS etc.)",18,"$150,000 or more",6,Christianity,Other,Moderate liberal ,Weak Democrat,2,Liberal,Conservative,Sometimes,2,4,5,5,4,5,4,4,4,35,5,5,5,5,4,24,4,3,4,3,4
118,PMM004-2-24,4,PMM004,2,24,2395,NA,NA,NA,NA,NA,NA,NA,NA,NA,NA,NA,1,-1,-1,1,1,-1,Abortion rights,Bathrooms restricted based on biological sex,1,1,-1,5,4,0,-2,-1,2.5,3.5,3.5,,3.5,2.5,0,26,0.749643549,Female,1,"Graduate or professional degree (MA, MS, MBA, PhD, JD, MD, DDS etc.)",18,"$150,000 or more",6,Christianity,Other,Moderate liberal ,Weak Democrat,2,Liberal,Conservative,Sometimes,2,4,5,5,4,5,4,4,4,35,5,5,5,5,4,24,4,4,4,4,4
119,PMM004-2-3,4,PMM004,2,3,3077,NA,NA,NA,NA,NA,NA,NA,NA,NA,NA,NA,0.5,-0.5,-0.5,0.5,2,-2,Lift COVID lockdowns,Increased Gun regulations,1,1,1,4,6,2,-2,-2,4,4.5,4.5,,4.5,4,0,26,0.749643549,Female,1,"Graduate or professional degree (MA, MS, MBA, PhD, JD, MD, DDS etc.)",18,"$150,000 or more",6,Christianity,Other,Moderate liberal ,Weak Democrat,2,Liberal,Conservative,Sometimes,2,4,5,5,4,5,4,4,4,35,5,5,5,5,4,24,4,4,4,4,4
120,PMM004-2-4,4,PMM004,2,4,1921,NA,NA,NA,NA,NA,NA,NA,NA,NA,NA,NA,-1,1,-1,-1,4,4,Defund Planned Parenthood,Abortion rights,0,0,1,1,5,0,-3,-4,3.5,2.5,3.5,,3.5,2.5,1,26,0.749643549,Female,1,"Graduate or professional degree (MA, MS, MBA, PhD, JD, MD, DDS etc.)",18,"$150,000 or more",6,Christianity,Other,Moderate liberal ,Weak Democrat,2,Liberal,Conservative,Sometimes,2,4,5,5,4,5,4,4,4,35,5,5,5,5,4,24,3,4,3,4,3
121,PMM004-2-5,4,PMM004,2,5,3546,NA,NA,NA,NA,NA,NA,NA,NA,NA,NA,NA,1,-1,-1,-1,3,3,Religious exemptions for discrimination laws,Cuts to National Parks budget,1,1,1,3,0,2,3,3,3,4,4,,4,3,1,26,0.749643549,Female,1,"Graduate or professional degree (MA, MS, MBA, PhD, JD, MD, DDS etc.)",18,"$150,000 or more",6,Christianity,Other,Moderate liberal ,Weak Democrat,2,Liberal,Conservative,Sometimes,2,4,5,5,4,5,4,4,4,35,5,5,5,5,4,24,4,3,3,4,4
122,PMM004-2-6,4,PMM004,2,6,2243,NA,NA,NA,NA,NA,NA,NA,NA,NA,NA,NA,-1,1,1,1,1,1,Detention of migrant children,Legalization of marijuana,1,1,-1,0,1,2,-2,1,5,4,5,,4,5,1,26,0.749643549,Female,1,"Graduate or professional degree (MA, MS, MBA, PhD, JD, MD, DDS etc.)",18,"$150,000 or more",6,Christianity,Other,Moderate liberal ,Weak Democrat,2,Liberal,Conservative,Sometimes,2,4,5,5,4,5,4,4,4,35,5,5,5,5,4,24,4,3,3,4,3
123,PMM004-2-7,4,PMM004,2,7,1966,NA,NA,NA,NA,NA,NA,NA,NA,NA,NA,NA,-1.5,1.5,-1.5,1.5,2,-2,Expel students with white nationlist views,Gun-free campus police,0,0,1,4,2,0,-2,2,5,3.5,5,,5,3.5,0,26,0.749643549,Female,1,"Graduate or professional degree (MA, MS, MBA, PhD, JD, MD, DDS etc.)",18,"$150,000 or more",6,Christianity,Other,Moderate liberal ,Weak Democrat,2,Liberal,Conservative,Sometimes,2,4,5,5,4,5,4,4,4,35,5,5,5,5,4,24,2,3,2,3,2
124,PMM004-2-8,4,PMM004,2,8,2079,NA,NA,NA,NA,NA,NA,NA,NA,NA,NA,NA,2,-2,2,2,1,1,"Boycott, Divest, and Sanction Israel",Expel students with white nationlist views,0,0,1,3,4,2,3,-1,3,5,5,,3,5,1,26,0.749643549,Female,1,"Graduate or professional degree (MA, MS, MBA, PhD, JD, MD, DDS etc.)",18,"$150,000 or more",6,Christianity,Other,Moderate liberal ,Weak Democrat,2,Liberal,Conservative,Sometimes,2,4,5,5,4,5,4,4,4,35,5,5,5,5,4,24,1,2,1,2,2
125,PMM004-2-9,4,PMM004,2,9,1779,NA,NA,NA,NA,NA,NA,NA,NA,NA,NA,NA,0,0,0,0,2,-2,Remove police from schools,Hardening schools/Arming teachers,1,1,-1,4,2,3,-3,-2,3.5,3.5,3.5,,3.5,3.5,0,26,0.749643549,Female,1,"Graduate or professional degree (MA, MS, MBA, PhD, JD, MD, DDS etc.)",18,"$150,000 or more",6,Christianity,Other,Moderate liberal ,Weak Democrat,2,Liberal,Conservative,Sometimes,2,4,5,5,4,5,4,4,4,35,5,5,5,5,4,24,3,3,3,3,3
126,PMM004-3-1,4,PMM004,3,1,2579,NA,NA,NA,NA,NA,NA,NA,NA,NA,NA,NA,-1,1,-1,1,1,-1,Ban on ethnic Halloween costumes,Remove public Confederate memorials,0,0,1,6,5,1,-3,1,5,4,5,,5,4,0,26,0.749643549,Female,1,"Graduate or professional degree (MA, MS, MBA, PhD, JD, MD, DDS etc.)",18,"$150,000 or more",6,Christianity,Other,Moderate liberal ,Weak Democrat,2,Liberal,Conservative,Sometimes,2,4,5,5,4,5,4,4,4,35,5,5,5,5,4,24,4,4,4,4,4
127,PMM004-3-10,4,PMM004,3,10,1913,NA,NA,NA,NA,NA,NA,NA,NA,NA,NA,NA,-0.5,0.5,0.5,0.5,1,1,Hardening schools/Arming teachers,Religious exemptions for discrimination laws,1,1,-1,2,3,1,-2,1,3.5,3,3.5,,3,3.5,1,26,0.749643549,Female,1,"Graduate or professional degree (MA, MS, MBA, PhD, JD, MD, DDS etc.)",18,"$150,000 or more",6,Christianity,Other,Moderate liberal ,Weak Democrat,2,Liberal,Conservative,Sometimes,2,4,5,5,4,5,4,4,4,35,5,5,5,5,4,24,3,3,3,3,3
128,PMM004-3-11,4,PMM004,3,11,2364,NA,NA,NA,NA,NA,NA,NA,NA,NA,NA,NA,-2,2,-2,-2,3,3,Stop police brutality,"Boycott, Divest, and Sanction Israel",0,0,-1,6,3,-2,3,-3,5,3,5,,5,3,1,26,0.749643549,Female,1,"Graduate or professional degree (MA, MS, MBA, PhD, JD, MD, DDS etc.)",18,"$150,000 or more",6,Christianity,Other,Moderate liberal ,Weak Democrat,2,Liberal,Conservative,Sometimes,2,4,5,5,4,5,4,4,4,35,5,5,5,5,4,24,4,1,4,1,4
129,PMM004-3-12,4,PMM004,3,12,3014,NA,NA,NA,NA,NA,NA,NA,NA,NA,NA,NA,0,0,0,0,1,-1,Legalization of marijuana,Cuts to National Parks budget,1,1,-1,1,0,-1,-2,-1,4,4,4,,4,4,0,26,0.749643549,Female,1,"Graduate or professional degree (MA, MS, MBA, PhD, JD, MD, DDS etc.)",18,"$150,000 or more",6,Christianity,Other,Moderate liberal ,Weak Democrat,2,Liberal,Conservative,Sometimes,2,4,5,5,4,5,4,4,4,35,5,5,5,5,4,24,4,4,4,4,4
130,PMM004-3-13,4,PMM004,3,13,2241,NA,NA,NA,NA,NA,NA,NA,NA,NA,NA,NA,-0.5,0.5,0.5,0.5,4,4,Black Lives Matter,Defund Planned Parenthood,1,1,1,5,1,3,1,4,4,3.5,4,,3.5,4,1,26,0.749643549,Female,1,"Graduate or professional degree (MA, MS, MBA, PhD, JD, MD, DDS etc.)",18,"$150,000 or more",6,Christianity,Other,Moderate liberal ,Weak Democrat,2,Liberal,Conservative,Sometimes,2,4,5,5,4,5,4,4,4,35,5,5,5,5,4,24,3,4,4,3,4
131,PMM004-3-14,4,PMM004,3,14,3967,NA,NA,NA,NA,NA,NA,NA,NA,NA,NA,NA,0.5,-0.5,0.5,0.5,1,1,On campus concealed carry,Student worker unionization,0,0,1,2,3,1,-1,-1,3.5,4,4,,3.5,4,1,26,0.749643549,Female,1,"Graduate or professional degree (MA, MS, MBA, PhD, JD, MD, DDS etc.)",18,"$150,000 or more",6,Christianity,Other,Moderate liberal ,Weak Democrat,2,Liberal,Conservative,Sometimes,2,4,5,5,4,5,4,4,4,35,5,5,5,5,4,24,2,3,2,3,3
132,PMM004-3-15,4,PMM004,3,15,3089,NA,NA,NA,NA,NA,NA,NA,NA,NA,NA,NA,-2,2,-2,2,1,-1,Ban on ethnic Halloween costumes,Safe injection locations,0,0,1,6,5,2,-2,1,5,3,5,,5,3,0,26,0.749643549,Female,1,"Graduate or professional degree (MA, MS, MBA, PhD, JD, MD, DDS etc.)",18,"$150,000 or more",6,Christianity,Other,Moderate liberal ,Weak Democrat,2,Liberal,Conservative,Sometimes,2,4,5,5,4,5,4,4,4,35,5,5,5,5,4,24,4,3,4,3,4
133,PMM004-3-16,4,PMM004,3,16,3358,NA,NA,NA,NA,NA,NA,NA,NA,NA,NA,NA,0,0,0,0,6,6,Tuition increases,Abolishing fraternities,1,1,-1,0,6,0,-1,6,5,5,5,,5,5,1,26,0.749643549,Female,1,"Graduate or professional degree (MA, MS, MBA, PhD, JD, MD, DDS etc.)",18,"$150,000 or more",6,Christianity,Other,Moderate liberal ,Weak Democrat,2,Liberal,Conservative,Sometimes,2,4,5,5,4,5,4,4,4,35,5,5,5,5,4,24,4,4,4,4,4
134,PMM004-3-17,4,PMM004,3,17,1829,NA,NA,NA,NA,NA,NA,NA,NA,NA,NA,NA,1,-1,1,1,5,5,Defund Planned Parenthood,Increased Gun regulations,0,0,1,1,6,0,-2,-5,3.5,4.5,4.5,,3.5,4.5,1,26,0.749643549,Female,1,"Graduate or professional degree (MA, MS, MBA, PhD, JD, MD, DDS etc.)",18,"$150,000 or more",6,Christianity,Other,Moderate liberal ,Weak Democrat,2,Liberal,Conservative,Sometimes,2,4,5,5,4,5,4,4,4,35,5,5,5,5,4,24,3,4,3,4,4
135,PMM004-3-18,4,PMM004,3,18,3090,NA,NA,NA,NA,NA,NA,NA,NA,NA,NA,NA,-2.5,2.5,2.5,2.5,5,5,Detention of migrant children,Abortion rights,1,1,-1,0,5,1,-2,5,5,2.5,5,,2.5,5,1,26,0.749643549,Female,1,"Graduate or professional degree (MA, MS, MBA, PhD, JD, MD, DDS etc.)",18,"$150,000 or more",6,Christianity,Other,Moderate liberal ,Weak Democrat,2,Liberal,Conservative,Sometimes,2,4,5,5,4,5,4,4,4,35,5,5,5,5,4,24,4,3,3,4,3
136,PMM004-3-19,4,PMM004,3,19,3306,NA,NA,NA,NA,NA,NA,NA,NA,NA,NA,NA,0.5,-0.5,0.5,-0.5,1,-1,Remove police from schools,Abolishing private prisons,0,0,-1,4,5,2,-1,1,3.5,4,4,,3.5,4,0,26,0.749643549,Female,1,"Graduate or professional degree (MA, MS, MBA, PhD, JD, MD, DDS etc.)",18,"$150,000 or more",6,Christianity,Other,Moderate liberal ,Weak Democrat,2,Liberal,Conservative,Sometimes,2,4,5,5,4,5,4,4,4,35,5,5,5,5,4,24,3,3,3,3,3
137,PMM004-3-2,4,PMM004,3,2,2622,NA,NA,NA,NA,NA,NA,NA,NA,NA,NA,NA,1,-1,1,1,3,3,Abortion rights,Gun-free campus police,0,0,-1,5,2,2,1,-3,2.5,3.5,3.5,,2.5,3.5,1,26,0.749643549,Female,1,"Graduate or professional degree (MA, MS, MBA, PhD, JD, MD, DDS etc.)",18,"$150,000 or more",6,Christianity,Other,Moderate liberal ,Weak Democrat,2,Liberal,Conservative,Sometimes,2,4,5,5,4,5,4,4,4,35,5,5,5,5,4,24,4,3,4,3,3
138,PMM004-3-20,4,PMM004,3,20,2184,NA,NA,NA,NA,NA,NA,NA,NA,NA,NA,NA,2,-2,2,2,3,3,Recognize Jerusalem as capital of Israel,Increased Gun regulations,0,0,1,3,6,2,-1,-3,2.5,4.5,4.5,,2.5,4.5,1,26,0.749643549,Female,1,"Graduate or professional degree (MA, MS, MBA, PhD, JD, MD, DDS etc.)",18,"$150,000 or more",6,Christianity,Other,Moderate liberal ,Weak Democrat,2,Liberal,Conservative,Sometimes,2,4,5,5,4,5,4,4,4,35,5,5,5,5,4,24,2,4,2,4,4
139,PMM004-3-21,4,PMM004,3,21,3317,NA,NA,NA,NA,NA,NA,NA,NA,NA,NA,NA,-0.5,0.5,-0.5,-0.5,2,2,Student worker unionization,Defund Planned Parenthood,0,0,-1,3,1,1,0,-2,4,3.5,4,,4,3.5,1,26,0.749643549,Female,1,"Graduate or professional degree (MA, MS, MBA, PhD, JD, MD, DDS etc.)",18,"$150,000 or more",6,Christianity,Other,Moderate liberal ,Weak Democrat,2,Liberal,Conservative,Sometimes,2,4,5,5,4,5,4,4,4,35,5,5,5,5,4,24,3,3,3,3,3
140,PMM004-3-22,4,PMM004,3,22,1589,NA,NA,NA,NA,NA,NA,NA,NA,NA,NA,NA,-0.5,0.5,0.5,0.5,3,3,Increased Gun regulations,Student worker unionization,1,1,1,6,3,0,1,3,4.5,4,4.5,,4,4.5,1,26,0.749643549,Female,1,"Graduate or professional degree (MA, MS, MBA, PhD, JD, MD, DDS etc.)",18,"$150,000 or more",6,Christianity,Other,Moderate liberal ,Weak Democrat,2,Liberal,Conservative,Sometimes,2,4,5,5,4,5,4,4,4,35,5,5,5,5,4,24,3,4,4,3,4
141,PMM004-3-23,4,PMM004,3,23,3227,NA,NA,NA,NA,NA,NA,NA,NA,NA,NA,NA,-1,1,1,-1,1,-1,Student worker unionization,Dorms determined by gender identity,1,1,1,3,4,2,-1,-1,4,3,4,,3,4,0,26,0.749643549,Female,1,"Graduate or professional degree (MA, MS, MBA, PhD, JD, MD, DDS etc.)",18,"$150,000 or more",6,Christianity,Other,Moderate liberal ,Weak Democrat,2,Liberal,Conservative,Sometimes,2,4,5,5,4,5,4,4,4,35,5,5,5,5,4,24,3,3,3,3,3
142,PMM004-3-24,4,PMM004,3,24,3113,NA,NA,NA,NA,NA,NA,NA,NA,NA,NA,NA,0,0,0,0,1,1,Recognize Jerusalem as capital of Israel,Mandatory drug tests for welfare recipients,1,1,-1,3,4,-2,-1,1,2.5,2.5,2.5,,2.5,2.5,1,26,0.749643549,Female,1,"Graduate or professional degree (MA, MS, MBA, PhD, JD, MD, DDS etc.)",18,"$150,000 or more",6,Christianity,Other,Moderate liberal ,Weak Democrat,2,Liberal,Conservative,Sometimes,2,4,5,5,4,5,4,4,4,35,5,5,5,5,4,24,2,2,2,2,2
143,PMM004-3-3,4,PMM004,3,3,2782,NA,NA,NA,NA,NA,NA,NA,NA,NA,NA,NA,-1,1,1,1,5,5,Abolishing fraternities,Legalization of marijuana,1,1,1,6,1,-1,0,5,5,4,5,,4,5,1,26,0.749643549,Female,1,"Graduate or professional degree (MA, MS, MBA, PhD, JD, MD, DDS etc.)",18,"$150,000 or more",6,Christianity,Other,Moderate liberal ,Weak Democrat,2,Liberal,Conservative,Sometimes,2,4,5,5,4,5,4,4,4,35,5,5,5,5,4,24,4,4,4,4,4
144,PMM004-3-4,4,PMM004,3,4,2941,NA,NA,NA,NA,NA,NA,NA,NA,NA,NA,NA,0.5,-0.5,0.5,-0.5,3,-3,Defund Planned Parenthood,War on Drugs,0,0,-1,1,4,2,1,3,3.5,4,4,,3.5,4,0,26,0.749643549,Female,1,"Graduate or professional degree (MA, MS, MBA, PhD, JD, MD, DDS etc.)",18,"$150,000 or more",6,Christianity,Other,Moderate liberal ,Weak Democrat,2,Liberal,Conservative,Sometimes,2,4,5,5,4,5,4,4,4,35,5,5,5,5,4,24,3,3,3,3,3
145,PMM004-3-6,4,PMM004,3,6,1562,NA,NA,NA,NA,NA,NA,NA,NA,NA,NA,NA,-2,2,2,2,2,2,Increased Gun regulations,Mandatory drug tests for welfare recipients,1,1,1,6,4,-1,0,2,4.5,2.5,4.5,,2.5,4.5,1,26,0.749643549,Female,1,"Graduate or professional degree (MA, MS, MBA, PhD, JD, MD, DDS etc.)",18,"$150,000 or more",6,Christianity,Other,Moderate liberal ,Weak Democrat,2,Liberal,Conservative,Sometimes,2,4,5,5,4,5,4,4,4,35,5,5,5,5,4,24,2,4,4,2,4
146,PMM004-3-7,4,PMM004,3,7,2788,NA,NA,NA,NA,NA,NA,NA,NA,NA,NA,NA,0,0,0,0,2,2,Recognize Jerusalem as capital of Israel,Abortion rights,1,1,-1,3,5,1,3,2,2.5,2.5,2.5,,2.5,2.5,1,26,0.749643549,Female,1,"Graduate or professional degree (MA, MS, MBA, PhD, JD, MD, DDS etc.)",18,"$150,000 or more",6,Christianity,Other,Moderate liberal ,Weak Democrat,2,Liberal,Conservative,Sometimes,2,4,5,5,4,5,4,4,4,35,5,5,5,5,4,24,4,2,2,4,4
147,PMM004-3-8,4,PMM004,3,8,1588,NA,NA,NA,NA,NA,NA,NA,NA,NA,NA,NA,0,0,0,0,2,-2,Defund the police,Lift COVID lockdowns,1,1,1,2,4,3,2,-2,4,4,4,,4,4,0,26,0.749643549,Female,1,"Graduate or professional degree (MA, MS, MBA, PhD, JD, MD, DDS etc.)",18,"$150,000 or more",6,Christianity,Other,Moderate liberal ,Weak Democrat,2,Liberal,Conservative,Sometimes,2,4,5,5,4,5,4,4,4,35,5,5,5,5,4,24,4,4,4,4,4
148,PMM004-3-9,4,PMM004,3,9,3512,NA,NA,NA,NA,NA,NA,NA,NA,NA,NA,NA,-1.5,1.5,-1.5,1.5,2,-2,U.S. drone strikes in Afghanistan,Mandatory drug tests for welfare recipients,0,0,-1,2,4,0,2,2,4,2.5,4,,4,2.5,0,26,0.749643549,Female,1,"Graduate or professional degree (MA, MS, MBA, PhD, JD, MD, DDS etc.)",18,"$150,000 or more",6,Christianity,Other,Moderate liberal ,Weak Democrat,2,Liberal,Conservative,Sometimes,2,4,5,5,4,5,4,4,4,35,5,5,5,5,4,24,3,2,3,2,3
149,PMM004-4-1,4,PMM004,4,1,3571,NA,NA,NA,NA,NA,NA,NA,NA,NA,NA,NA,-1.5,1.5,1.5,1.5,3,3,Physician-assisted suicide,Abortion rights,1,1,-1,2,5,1,-3,3,4,2.5,4,,2.5,4,1,26,0.749643549,Female,1,"Graduate or professional degree (MA, MS, MBA, PhD, JD, MD, DDS etc.)",18,"$150,000 or more",6,Christianity,Other,Moderate liberal ,Weak Democrat,2,Liberal,Conservative,Sometimes,2,4,5,5,4,5,4,4,4,35,5,5,5,5,4,24,4,4,4,4,4
150,PMM004-4-10,4,PMM004,4,10,3005,NA,NA,NA,NA,NA,NA,NA,NA,NA,NA,NA,-1.5,1.5,-1.5,-1.5,4,4,Stop police brutality,Gun-free campus police,0,0,-1,6,2,-3,3,-4,5,3.5,5,,5,3.5,1,26,0.749643549,Female,1,"Graduate or professional degree (MA, MS, MBA, PhD, JD, MD, DDS etc.)",18,"$150,000 or more",6,Christianity,Other,Moderate liberal ,Weak Democrat,2,Liberal,Conservative,Sometimes,2,4,5,5,4,5,4,4,4,35,5,5,5,5,4,24,4,3,4,3,4
151,PMM004-4-11,4,PMM004,4,11,3350,NA,NA,NA,NA,NA,NA,NA,NA,NA,NA,NA,-1.5,1.5,1.5,1.5,2,2,Student worker unionization,Abortion rights,1,1,-1,3,5,-1,0,2,4,2.5,4,,2.5,4,1,26,0.749643549,Female,1,"Graduate or professional degree (MA, MS, MBA, PhD, JD, MD, DDS etc.)",18,"$150,000 or more",6,Christianity,Other,Moderate liberal ,Weak Democrat,2,Liberal,Conservative,Sometimes,2,4,5,5,4,5,4,4,4,35,5,5,5,5,4,24,4,3,3,4,3
152,PMM004-4-12,4,PMM004,4,12,2846,NA,NA,NA,NA,NA,NA,NA,NA,NA,NA,NA,-1.5,1.5,1.5,1.5,2,2,Tuition increases,Hardening schools/Arming teachers,1,1,-1,0,2,0,-3,2,5,3.5,5,,3.5,5,1,26,0.749643549,Female,1,"Graduate or professional degree (MA, MS, MBA, PhD, JD, MD, DDS etc.)",18,"$150,000 or more",6,Christianity,Other,Moderate liberal ,Weak Democrat,2,Liberal,Conservative,Sometimes,2,4,5,5,4,5,4,4,4,35,5,5,5,5,4,24,3,4,4,3,4
153,PMM004-4-13,4,PMM004,4,13,1999,NA,NA,NA,NA,NA,NA,NA,NA,NA,NA,NA,0,0,0,0,2,2,Legalization of marijuana,Student worker unionization,0,0,1,1,3,2,0,-2,4,4,4,,4,4,1,26,0.749643549,Female,1,"Graduate or professional degree (MA, MS, MBA, PhD, JD, MD, DDS etc.)",18,"$150,000 or more",6,Christianity,Other,Moderate liberal ,Weak Democrat,2,Liberal,Conservative,Sometimes,2,4,5,5,4,5,4,4,4,35,5,5,5,5,4,24,4,3,4,3,3
154,PMM004-4-14,4,PMM004,4,14,2097,NA,NA,NA,NA,NA,NA,NA,NA,NA,NA,NA,1,-1,-1,-1,1,1,"Boycott, Divest, and Sanction Israel",U.S. drone strikes in Afghanistan,1,1,1,3,2,1,-1,1,3,4,4,,4,3,1,26,0.749643549,Female,1,"Graduate or professional degree (MA, MS, MBA, PhD, JD, MD, DDS etc.)",18,"$150,000 or more",6,Christianity,Other,Moderate liberal ,Weak Democrat,2,Liberal,Conservative,Sometimes,2,4,5,5,4,5,4,4,4,35,5,5,5,5,4,24,3,1,1,3,3
155,PMM004-4-15,4,PMM004,4,15,2190,NA,NA,NA,NA,NA,NA,NA,NA,NA,NA,NA,-1.5,1.5,-1.5,-1.5,4,4,Detention of migrant children,Remove police from schools,0,0,1,0,4,0,2,-4,5,3.5,5,,5,3.5,1,26,0.749643549,Female,1,"Graduate or professional degree (MA, MS, MBA, PhD, JD, MD, DDS etc.)",18,"$150,000 or more",6,Christianity,Other,Moderate liberal ,Weak Democrat,2,Liberal,Conservative,Sometimes,2,4,5,5,4,5,4,4,4,35,5,5,5,5,4,24,3,3,3,3,3
156,PMM004-4-16,4,PMM004,4,16,1985,NA,NA,NA,NA,NA,NA,NA,NA,NA,NA,NA,-1,1,-1,1,1,-1,Lift COVID lockdowns,Religious exemptions for discrimination laws,0,0,1,4,3,0,2,1,4,3,4,,4,3,0,26,0.749643549,Female,1,"Graduate or professional degree (MA, MS, MBA, PhD, JD, MD, DDS etc.)",18,"$150,000 or more",6,Christianity,Other,Moderate liberal ,Weak Democrat,2,Liberal,Conservative,Sometimes,2,4,5,5,4,5,4,4,4,35,5,5,5,5,4,24,4,3,4,3,4
157,PMM004-4-17,4,PMM004,4,17,3102,NA,NA,NA,NA,NA,NA,NA,NA,NA,NA,NA,-1,1,-1,-1,1,1,Expel students with white nationlist views,Mandatory training on sexual consent,0,0,1,4,5,-3,-2,-1,5,4,5,,5,4,1,26,0.749643549,Female,1,"Graduate or professional degree (MA, MS, MBA, PhD, JD, MD, DDS etc.)",18,"$150,000 or more",6,Christianity,Other,Moderate liberal ,Weak Democrat,2,Liberal,Conservative,Sometimes,2,4,5,5,4,5,4,4,4,35,5,5,5,5,4,24,2,3,2,3,2
158,PMM004-4-18,4,PMM004,4,18,2349,NA,NA,NA,NA,NA,NA,NA,NA,NA,NA,NA,2.5,-2.5,-2.5,-2.5,3,3,Recognize Jerusalem as capital of Israel,Tuition increases,1,1,1,3,0,-1,-2,3,2.5,5,5,,5,2.5,1,26,0.749643549,Female,1,"Graduate or professional degree (MA, MS, MBA, PhD, JD, MD, DDS etc.)",18,"$150,000 or more",6,Christianity,Other,Moderate liberal ,Weak Democrat,2,Liberal,Conservative,Sometimes,2,4,5,5,4,5,4,4,4,35,5,5,5,5,4,24,4,2,2,4,4
159,PMM004-4-19,4,PMM004,4,19,3424,NA,NA,NA,NA,NA,NA,NA,NA,NA,NA,NA,1.5,-1.5,1.5,1.5,4,4,Mandatory drug tests for welfare recipients,Cuts to National Parks budget,0,0,-1,4,0,-1,1,-4,2.5,4,4,,2.5,4,1,26,0.749643549,Female,1,"Graduate or professional degree (MA, MS, MBA, PhD, JD, MD, DDS etc.)",18,"$150,000 or more",6,Christianity,Other,Moderate liberal ,Weak Democrat,2,Liberal,Conservative,Sometimes,2,4,5,5,4,5,4,4,4,35,5,5,5,5,4,24,2,4,2,4,4
160,PMM004-4-2,4,PMM004,4,2,1879,NA,NA,NA,NA,NA,NA,NA,NA,NA,NA,NA,-1,1,-1,-1,3,3,Allow alt-right speakers on campus,Safe injection locations,0,0,1,2,5,-1,-3,-3,4,3,4,,4,3,1,26,0.749643549,Female,1,"Graduate or professional degree (MA, MS, MBA, PhD, JD, MD, DDS etc.)",18,"$150,000 or more",6,Christianity,Other,Moderate liberal ,Weak Democrat,2,Liberal,Conservative,Sometimes,2,4,5,5,4,5,4,4,4,35,5,5,5,5,4,24,3,3,3,3,3
161,PMM004-4-20,4,PMM004,4,20,3718,NA,NA,NA,NA,NA,NA,NA,NA,NA,NA,NA,1.5,-1.5,1.5,-1.5,1,-1,Recognize Jerusalem as capital of Israel,War on Drugs,0,0,-1,3,4,-2,-1,1,2.5,4,4,,2.5,4,0,26,0.749643549,Female,1,"Graduate or professional degree (MA, MS, MBA, PhD, JD, MD, DDS etc.)",18,"$150,000 or more",6,Christianity,Other,Moderate liberal ,Weak Democrat,2,Liberal,Conservative,Sometimes,2,4,5,5,4,5,4,4,4,35,5,5,5,5,4,24,2,3,2,3,3
162,PMM004-4-21,4,PMM004,4,21,2094,NA,NA,NA,NA,NA,NA,NA,NA,NA,NA,NA,-1,1,1,1,2,2,Defund Planned Parenthood,Recognize Jerusalem as capital of Israel,1,1,-1,1,3,-1,1,2,3.5,2.5,3.5,,2.5,3.5,1,26,0.749643549,Female,1,"Graduate or professional degree (MA, MS, MBA, PhD, JD, MD, DDS etc.)",18,"$150,000 or more",6,Christianity,Other,Moderate liberal ,Weak Democrat,2,Liberal,Conservative,Sometimes,2,4,5,5,4,5,4,4,4,35,5,5,5,5,4,24,2,3,3,2,3
163,PMM004-4-22,4,PMM004,4,22,3176,NA,NA,NA,NA,NA,NA,NA,NA,NA,NA,NA,1,-1,1,1,2,2,Mandatory drug tests for welfare recipients,On campus concealed carry,0,0,-1,4,2,0,-1,-2,2.5,3.5,3.5,,2.5,3.5,1,26,0.749643549,Female,1,"Graduate or professional degree (MA, MS, MBA, PhD, JD, MD, DDS etc.)",18,"$150,000 or more",6,Christianity,Other,Moderate liberal ,Weak Democrat,2,Liberal,Conservative,Sometimes,2,4,5,5,4,5,4,4,4,35,5,5,5,5,4,24,2,2,2,2,2
164,PMM004-4-23,4,PMM004,4,23,2927,NA,NA,NA,NA,NA,NA,NA,NA,NA,NA,NA,0,0,0,0,2,-2,Student worker unionization,Mandatory vaccinations,1,1,1,3,5,-3,2,-2,4,4,4,,4,4,0,26,0.749643549,Female,1,"Graduate or professional degree (MA, MS, MBA, PhD, JD, MD, DDS etc.)",18,"$150,000 or more",6,Christianity,Other,Moderate liberal ,Weak Democrat,2,Liberal,Conservative,Sometimes,2,4,5,5,4,5,4,4,4,35,5,5,5,5,4,24,4,3,3,4,4
165,PMM004-4-3,4,PMM004,4,3,2908,NA,NA,NA,NA,NA,NA,NA,NA,NA,NA,NA,0,0,0,0,3,3,Defund Planned Parenthood,Bathrooms restricted based on biological sex,1,1,-1,1,4,1,-3,3,3.5,3.5,3.5,,3.5,3.5,1,26,0.749643549,Female,1,"Graduate or professional degree (MA, MS, MBA, PhD, JD, MD, DDS etc.)",18,"$150,000 or more",6,Christianity,Other,Moderate liberal ,Weak Democrat,2,Liberal,Conservative,Sometimes,2,4,5,5,4,5,4,4,4,35,5,5,5,5,4,24,4,3,3,4,4
166,PMM004-4-4,4,PMM004,4,4,2104,NA,NA,NA,NA,NA,NA,NA,NA,NA,NA,NA,-0.5,0.5,0.5,0.5,1,1,Increased Gun regulations,Ban on research with animals,1,1,1,6,5,0,-2,1,4.5,4,4.5,,4,4.5,1,26,0.749643549,Female,1,"Graduate or professional degree (MA, MS, MBA, PhD, JD, MD, DDS etc.)",18,"$150,000 or more",6,Christianity,Other,Moderate liberal ,Weak Democrat,2,Liberal,Conservative,Sometimes,2,4,5,5,4,5,4,4,4,35,5,5,5,5,4,24,4,4,4,4,4
167,PMM004-4-5,4,PMM004,4,5,1871,NA,NA,NA,NA,NA,NA,NA,NA,NA,NA,NA,-0.5,0.5,0.5,-0.5,1,-1,Religious exemptions for discrimination laws,Mandatory drug tests for welfare recipients,1,1,1,3,4,3,1,-1,3,2.5,3,,2.5,3,0,26,0.749643549,Female,1,"Graduate or professional degree (MA, MS, MBA, PhD, JD, MD, DDS etc.)",18,"$150,000 or more",6,Christianity,Other,Moderate liberal ,Weak Democrat,2,Liberal,Conservative,Sometimes,2,4,5,5,4,5,4,4,4,35,5,5,5,5,4,24,2,3,3,2,3
168,PMM004-4-6,4,PMM004,4,6,3150,NA,NA,NA,NA,NA,NA,NA,NA,NA,NA,NA,0,0,0,0,3,3,War on Drugs,Legalization of marijuana,0,0,-1,4,1,0,-2,-3,4,4,4,,4,4,1,26,0.749643549,Female,1,"Graduate or professional degree (MA, MS, MBA, PhD, JD, MD, DDS etc.)",18,"$150,000 or more",6,Christianity,Other,Moderate liberal ,Weak Democrat,2,Liberal,Conservative,Sometimes,2,4,5,5,4,5,4,4,4,35,5,5,5,5,4,24,3,4,3,4,4
169,PMM004-4-7,4,PMM004,4,7,3223,NA,NA,NA,NA,NA,NA,NA,NA,NA,NA,NA,0.5,-0.5,-0.5,0.5,1,-1,Abortion rights,University Campus should be a Sanctuary,1,1,-1,5,4,0,-1,-1,2.5,3,3,,3,2.5,0,26,0.749643549,Female,1,"Graduate or professional degree (MA, MS, MBA, PhD, JD, MD, DDS etc.)",18,"$150,000 or more",6,Christianity,Other,Moderate liberal ,Weak Democrat,2,Liberal,Conservative,Sometimes,2,4,5,5,4,5,4,4,4,35,5,5,5,5,4,24,2,4,4,2,2
170,PMM004-4-8,4,PMM004,4,8,2447,NA,NA,NA,NA,NA,NA,NA,NA,NA,NA,NA,2.5,-2.5,-2.5,-2.5,4,4,Mandatory drug tests for welfare recipients,Tuition increases,1,1,1,4,0,1,-3,4,2.5,5,5,,5,2.5,1,26,0.749643549,Female,1,"Graduate or professional degree (MA, MS, MBA, PhD, JD, MD, DDS etc.)",18,"$150,000 or more",6,Christianity,Other,Moderate liberal ,Weak Democrat,2,Liberal,Conservative,Sometimes,2,4,5,5,4,5,4,4,4,35,5,5,5,5,4,24,4,2,2,4,4
171,PMM004-4-9,4,PMM004,4,9,2781,NA,NA,NA,NA,NA,NA,NA,NA,NA,NA,NA,1,-1,-1,-1,2,2,Defund the police,Detention of migrant children,1,1,1,2,0,0,1,2,4,5,5,,5,4,1,26,0.749643549,Female,1,"Graduate or professional degree (MA, MS, MBA, PhD, JD, MD, DDS etc.)",18,"$150,000 or more",6,Christianity,Other,Moderate liberal ,Weak Democrat,2,Liberal,Conservative,Sometimes,2,4,5,5,4,5,4,4,4,35,5,5,5,5,4,24,3,4,4,3,3
172,PMM004-5-1,4,PMM004,5,1,2270,NA,NA,NA,NA,NA,NA,NA,NA,NA,NA,NA,-0.5,0.5,-0.5,-0.5,1,1,Physician-assisted suicide,Defund Planned Parenthood,0,0,-1,2,1,3,-1,-1,4,3.5,4,,4,3.5,1,26,0.749643549,Female,1,"Graduate or professional degree (MA, MS, MBA, PhD, JD, MD, DDS etc.)",18,"$150,000 or more",6,Christianity,Other,Moderate liberal ,Weak Democrat,2,Liberal,Conservative,Sometimes,2,4,5,5,4,5,4,4,4,35,5,5,5,5,4,24,4,3,4,3,4
173,PMM004-5-10,4,PMM004,5,10,2612,NA,NA,NA,NA,NA,NA,NA,NA,NA,NA,NA,-1,1,1,-1,1,-1,Bathrooms restricted based on biological sex,Recognize Jerusalem as capital of Israel,1,1,-1,4,3,1,0,-1,3.5,2.5,3.5,,2.5,3.5,0,26,0.749643549,Female,1,"Graduate or professional degree (MA, MS, MBA, PhD, JD, MD, DDS etc.)",18,"$150,000 or more",6,Christianity,Other,Moderate liberal ,Weak Democrat,2,Liberal,Conservative,Sometimes,2,4,5,5,4,5,4,4,4,35,5,5,5,5,4,24,2,4,4,2,4
174,PMM004-5-11,4,PMM004,5,11,2851,NA,NA,NA,NA,NA,NA,NA,NA,NA,NA,NA,0,0,0,0,1,1,Legalization of marijuana,Allow alt-right speakers on campus,1,1,-1,1,2,3,1,1,4,4,4,,4,4,1,26,0.749643549,Female,1,"Graduate or professional degree (MA, MS, MBA, PhD, JD, MD, DDS etc.)",18,"$150,000 or more",6,Christianity,Other,Moderate liberal ,Weak Democrat,2,Liberal,Conservative,Sometimes,2,4,5,5,4,5,4,4,4,35,5,5,5,5,4,24,3,4,4,3,3
175,PMM004-5-12,4,PMM004,5,12,3566,NA,NA,NA,NA,NA,NA,NA,NA,NA,NA,NA,0.5,-0.5,0.5,-0.5,1,-1,"Boycott, Divest, and Sanction Israel",Remove police from schools,0,0,-1,3,4,2,-2,1,3,3.5,3.5,,3,3.5,0,26,0.749643549,Female,1,"Graduate or professional degree (MA, MS, MBA, PhD, JD, MD, DDS etc.)",18,"$150,000 or more",6,Christianity,Other,Moderate liberal ,Weak Democrat,2,Liberal,Conservative,Sometimes,2,4,5,5,4,5,4,4,4,35,5,5,5,5,4,24,1,3,1,3,3
176,PMM004-5-14,4,PMM004,5,14,1688,NA,NA,NA,NA,NA,NA,NA,NA,NA,NA,NA,-2,2,-2,2,2,-2,Ban on ethnic Halloween costumes,Dorms determined by gender identity,0,0,1,6,4,2,1,2,5,3,5,,5,3,0,26,0.749643549,Female,1,"Graduate or professional degree (MA, MS, MBA, PhD, JD, MD, DDS etc.)",18,"$150,000 or more",6,Christianity,Other,Moderate liberal ,Weak Democrat,2,Liberal,Conservative,Sometimes,2,4,5,5,4,5,4,4,4,35,5,5,5,5,4,24,4,3,4,3,4
177,PMM004-5-15,4,PMM004,5,15,1710,NA,NA,NA,NA,NA,NA,NA,NA,NA,NA,NA,-0.5,0.5,0.5,0.5,1,1,Cuts to National Parks budget,Defund Planned Parenthood,1,1,-1,0,1,3,2,1,4,3.5,4,,3.5,4,1,26,0.749643549,Female,1,"Graduate or professional degree (MA, MS, MBA, PhD, JD, MD, DDS etc.)",18,"$150,000 or more",6,Christianity,Other,Moderate liberal ,Weak Democrat,2,Liberal,Conservative,Sometimes,2,4,5,5,4,5,4,4,4,35,5,5,5,5,4,24,3,4,4,3,4
178,PMM004-5-16,4,PMM004,5,16,2086,NA,NA,NA,NA,NA,NA,NA,NA,NA,NA,NA,0,0,0,0,2,-2,Religious exemptions for discrimination laws,Safe injection locations,1,1,1,3,5,1,3,-2,3,3,3,,3,3,0,26,0.749643549,Female,1,"Graduate or professional degree (MA, MS, MBA, PhD, JD, MD, DDS etc.)",18,"$150,000 or more",6,Christianity,Other,Moderate liberal ,Weak Democrat,2,Liberal,Conservative,Sometimes,2,4,5,5,4,5,4,4,4,35,5,5,5,5,4,24,3,3,3,3,3
179,PMM004-5-17,4,PMM004,5,17,2055,NA,NA,NA,NA,NA,NA,NA,NA,NA,NA,NA,0.5,-0.5,-0.5,-0.5,5,5,Legalization of marijuana,Increased Gun regulations,1,1,-1,1,6,1,0,5,4,4.5,4.5,,4.5,4,1,26,0.749643549,Female,1,"Graduate or professional degree (MA, MS, MBA, PhD, JD, MD, DDS etc.)",18,"$150,000 or more",6,Christianity,Other,Moderate liberal ,Weak Democrat,2,Liberal,Conservative,Sometimes,2,4,5,5,4,5,4,4,4,35,5,5,5,5,4,24,4,4,4,4,4
180,PMM004-5-18,4,PMM004,5,18,1863,NA,NA,NA,NA,NA,NA,NA,NA,NA,NA,NA,-0.5,0.5,-0.5,-0.5,2,2,"Boycott, Divest, and Sanction Israel",Abortion rights,0,0,1,3,5,0,-3,-2,3,2.5,3,,3,2.5,1,26,0.749643549,Female,1,"Graduate or professional degree (MA, MS, MBA, PhD, JD, MD, DDS etc.)",18,"$150,000 or more",6,Christianity,Other,Moderate liberal ,Weak Democrat,2,Liberal,Conservative,Sometimes,2,4,5,5,4,5,4,4,4,35,5,5,5,5,4,24,1,4,1,4,1
181,PMM004-5-19,4,PMM004,5,19,1652,NA,NA,NA,NA,NA,NA,NA,NA,NA,NA,NA,-1,1,1,1,4,4,Abolishing fraternities,U.S. drone strikes in Afghanistan,1,1,1,6,2,2,0,4,5,4,5,,4,5,1,26,0.749643549,Female,1,"Graduate or professional degree (MA, MS, MBA, PhD, JD, MD, DDS etc.)",18,"$150,000 or more",6,Christianity,Other,Moderate liberal ,Weak Democrat,2,Liberal,Conservative,Sometimes,2,4,5,5,4,5,4,4,4,35,5,5,5,5,4,24,3,4,4,3,4
182,PMM004-5-2,4,PMM004,5,2,2118,NA,NA,NA,NA,NA,NA,NA,NA,NA,NA,NA,-1,1,1,1,3,3,Expel students with white nationlist views,Legalization of marijuana,1,1,1,4,1,3,2,3,5,4,5,,4,5,1,26,0.749643549,Female,1,"Graduate or professional degree (MA, MS, MBA, PhD, JD, MD, DDS etc.)",18,"$150,000 or more",6,Christianity,Other,Moderate liberal ,Weak Democrat,2,Liberal,Conservative,Sometimes,2,4,5,5,4,5,4,4,4,35,5,5,5,5,4,24,4,2,2,4,2
183,PMM004-5-20,4,PMM004,5,20,1756,NA,NA,NA,NA,NA,NA,NA,NA,NA,NA,NA,-0.5,0.5,-0.5,-0.5,2,2,Expel students with white nationlist views,Increased Gun regulations,0,0,1,4,6,-1,1,-2,5,4.5,5,,5,4.5,1,26,0.749643549,Female,1,"Graduate or professional degree (MA, MS, MBA, PhD, JD, MD, DDS etc.)",18,"$150,000 or more",6,Christianity,Other,Moderate liberal ,Weak Democrat,2,Liberal,Conservative,Sometimes,2,4,5,5,4,5,4,4,4,35,5,5,5,5,4,24,2,4,2,4,2
184,PMM004-5-21,4,PMM004,5,21,3549,NA,NA,NA,NA,NA,NA,NA,NA,NA,NA,NA,0.5,-0.5,0.5,0.5,2,2,University Campus should be a Sanctuary,Hardening schools/Arming teachers,0,0,-1,4,2,1,2,-2,3,3.5,3.5,,3,3.5,1,26,0.749643549,Female,1,"Graduate or professional degree (MA, MS, MBA, PhD, JD, MD, DDS etc.)",18,"$150,000 or more",6,Christianity,Other,Moderate liberal ,Weak Democrat,2,Liberal,Conservative,Sometimes,2,4,5,5,4,5,4,4,4,35,5,5,5,5,4,24,2,3,2,3,3
185,PMM004-5-22,4,PMM004,5,22,2248,NA,NA,NA,NA,NA,NA,NA,NA,NA,NA,NA,-0.5,0.5,-0.5,-0.5,4,4,Defund Planned Parenthood,Safe injection locations,0,0,1,1,5,-1,-3,-4,3.5,3,3.5,,3.5,3,1,26,0.749643549,Female,1,"Graduate or professional degree (MA, MS, MBA, PhD, JD, MD, DDS etc.)",18,"$150,000 or more",6,Christianity,Other,Moderate liberal ,Weak Democrat,2,Liberal,Conservative,Sometimes,2,4,5,5,4,5,4,4,4,35,5,5,5,5,4,24,3,3,3,3,3
186,PMM004-5-23,4,PMM004,5,23,3285,NA,NA,NA,NA,NA,NA,NA,NA,NA,NA,NA,-1.5,1.5,1.5,1.5,1,1,Student worker unionization,Mandatory drug tests for welfare recipients,1,1,-1,3,4,0,2,1,4,2.5,4,,2.5,4,1,26,0.749643549,Female,1,"Graduate or professional degree (MA, MS, MBA, PhD, JD, MD, DDS etc.)",18,"$150,000 or more",6,Christianity,Other,Moderate liberal ,Weak Democrat,2,Liberal,Conservative,Sometimes,2,4,5,5,4,5,4,4,4,35,5,5,5,5,4,24,2,3,3,2,3
187,PMM004-5-24,4,PMM004,5,24,2552,NA,NA,NA,NA,NA,NA,NA,NA,NA,NA,NA,0,0,0,0,3,3,Physician-assisted suicide,Remove Christopher Columbus statues,0,0,1,2,5,3,0,-3,4,4,4,,4,4,1,26,0.749643549,Female,1,"Graduate or professional degree (MA, MS, MBA, PhD, JD, MD, DDS etc.)",18,"$150,000 or more",6,Christianity,Other,Moderate liberal ,Weak Democrat,2,Liberal,Conservative,Sometimes,2,4,5,5,4,5,4,4,4,35,5,5,5,5,4,24,4,3,4,3,3
188,PMM004-5-3,4,PMM004,5,3,2372,NA,NA,NA,NA,NA,NA,NA,NA,NA,NA,NA,1,-1,1,1,5,5,Safe injection locations,Cuts to National Parks budget,0,0,-1,5,0,2,-3,-5,3,4,4,,3,4,1,26,0.749643549,Female,1,"Graduate or professional degree (MA, MS, MBA, PhD, JD, MD, DDS etc.)",18,"$150,000 or more",6,Christianity,Other,Moderate liberal ,Weak Democrat,2,Liberal,Conservative,Sometimes,2,4,5,5,4,5,4,4,4,35,5,5,5,5,4,24,3,4,3,4,4
189,PMM004-5-4,4,PMM004,5,4,2023,NA,NA,NA,NA,NA,NA,NA,NA,NA,NA,NA,1.5,-1.5,-1.5,-1.5,3,3,Mandatory drug tests for welfare recipients,Legalization of marijuana,1,1,1,4,1,2,0,3,2.5,4,4,,4,2.5,1,26,0.749643549,Female,1,"Graduate or professional degree (MA, MS, MBA, PhD, JD, MD, DDS etc.)",18,"$150,000 or more",6,Christianity,Other,Moderate liberal ,Weak Democrat,2,Liberal,Conservative,Sometimes,2,4,5,5,4,5,4,4,4,35,5,5,5,5,4,24,4,2,2,4,4
190,PMM004-5-5,4,PMM004,5,5,1980,NA,NA,NA,NA,NA,NA,NA,NA,NA,NA,NA,2,-2,2,2,1,1,Abortion rights,Increased Gun regulations,0,0,1,5,6,-1,2,-1,2.5,4.5,4.5,,2.5,4.5,1,26,0.749643549,Female,1,"Graduate or professional degree (MA, MS, MBA, PhD, JD, MD, DDS etc.)",18,"$150,000 or more",6,Christianity,Other,Moderate liberal ,Weak Democrat,2,Liberal,Conservative,Sometimes,2,4,5,5,4,5,4,4,4,35,5,5,5,5,4,24,4,4,4,4,4
191,PMM004-5-6,4,PMM004,5,6,1874,NA,NA,NA,NA,NA,NA,NA,NA,NA,NA,NA,1.5,-1.5,-1.5,-1.5,2,2,Recognize Jerusalem as capital of Israel,Legalization of marijuana,1,1,1,3,1,2,3,2,2.5,4,4,,4,2.5,1,26,0.749643549,Female,1,"Graduate or professional degree (MA, MS, MBA, PhD, JD, MD, DDS etc.)",18,"$150,000 or more",6,Christianity,Other,Moderate liberal ,Weak Democrat,2,Liberal,Conservative,Sometimes,2,4,5,5,4,5,4,4,4,35,5,5,5,5,4,24,4,2,2,4,4
192,PMM004-5-7,4,PMM004,5,7,1897,NA,NA,NA,NA,NA,NA,NA,NA,NA,NA,NA,0,0,0,0,4,4,Detention of migrant children,Expel students with white nationlist views,0,0,1,0,4,1,-2,-4,5,5,5,,5,5,1,26,0.749643549,Female,1,"Graduate or professional degree (MA, MS, MBA, PhD, JD, MD, DDS etc.)",18,"$150,000 or more",6,Christianity,Other,Moderate liberal ,Weak Democrat,2,Liberal,Conservative,Sometimes,2,4,5,5,4,5,4,4,4,35,5,5,5,5,4,24,3,2,3,2,2
193,PMM004-5-9,4,PMM004,5,9,1754,NA,NA,NA,NA,NA,NA,NA,NA,NA,NA,NA,0,0,0,0,1,1,Gun-free campus police,Defund Planned Parenthood,0,0,-1,2,1,3,-2,-1,3.5,3.5,3.5,,3.5,3.5,1,26,0.749643549,Female,1,"Graduate or professional degree (MA, MS, MBA, PhD, JD, MD, DDS etc.)",18,"$150,000 or more",6,Christianity,Other,Moderate liberal ,Weak Democrat,2,Liberal,Conservative,Sometimes,2,4,5,5,4,5,4,4,4,35,5,5,5,5,4,24,3,3,3,3,3
194,PMM005-1-1,5,PMM005,1,1,2772,NA,NA,NA,NA,NA,NA,NA,NA,NA,NA,NA,1,-1,1,1,1,1,Mandatory training on sexual consent,Abortion rights,0,0,1,4,5,-1,0,-1,3,4,4,,3,4,1,27,0.949252778,Male,0,Bachelors degree,16,"$25,000-$49,999",2,Agnosticism,None,,Weak Democrat,2,Liberal,Slightly liberal,Sometimes,2,1,0,1,0,0,0,1,0,3,1,1,1,1,1,5,2,3,2,3,3
195,PMM005-1-10,5,PMM005,1,10,3685,NA,NA,NA,NA,NA,NA,NA,NA,NA,NA,NA,1,-1,-1,-1,3,3,Defund Planned Parenthood,Raise the minimum wage,1,1,-1,1,4,2,1,3,1,2,2,,2,1,1,27,0.949252778,Male,0,Bachelors degree,16,"$25,000-$49,999",2,Agnosticism,None,,Weak Democrat,2,Liberal,Slightly liberal,Sometimes,2,1,0,1,0,0,0,1,0,3,1,1,1,1,1,5,3,1,1,3,3
196,PMM005-1-11,5,PMM005,1,11,3722,NA,NA,NA,NA,NA,NA,NA,NA,NA,NA,NA,2,-2,-2,-2,4,4,Gun-free campus police,War on Drugs,1,1,1,5,1,-3,-2,4,2.5,4.5,4.5,,4.5,2.5,1,27,0.949252778,Male,0,Bachelors degree,16,"$25,000-$49,999",2,Agnosticism,None,,Weak Democrat,2,Liberal,Slightly liberal,Sometimes,2,1,0,1,0,0,0,1,0,3,1,1,1,1,1,5,3,2,2,3,3
197,PMM005-1-12,5,PMM005,1,12,3559,NA,NA,NA,NA,NA,NA,NA,NA,NA,NA,NA,2,-2,-2,-2,1,1,Mandatory drug tests for welfare recipients,Mandatory training on sexual consent,1,1,-1,3,4,2,0,1,1,3,3,,3,1,1,27,0.949252778,Male,0,Bachelors degree,16,"$25,000-$49,999",2,Agnosticism,None,,Weak Democrat,2,Liberal,Slightly liberal,Sometimes,2,1,0,1,0,0,0,1,0,3,1,1,1,1,1,5,2,2,2,2,2
198,PMM005-1-13,5,PMM005,1,13,2751,NA,NA,NA,NA,NA,NA,NA,NA,NA,NA,NA,0,0,0,0,3,3,Build southern border wall,Remove Christopher Columbus statues,1,1,-1,1,4,-1,-3,3,2.5,2.5,2.5,,2.5,2.5,1,27,0.949252778,Male,0,Bachelors degree,16,"$25,000-$49,999",2,Agnosticism,None,,Weak Democrat,2,Liberal,Slightly liberal,Sometimes,2,1,0,1,0,0,0,1,0,3,1,1,1,1,1,5,2,2,2,2,2
199,PMM005-1-14,5,PMM005,1,14,3059,NA,NA,NA,NA,NA,NA,NA,NA,NA,NA,NA,-2,2,2,2,3,3,Stop police brutality,Remove police from schools,1,1,1,6,3,2,-1,3,5,3,5,,3,5,1,27,0.949252778,Male,0,Bachelors degree,16,"$25,000-$49,999",2,Agnosticism,None,,Weak Democrat,2,Liberal,Slightly liberal,Sometimes,2,1,0,1,0,0,0,1,0,3,1,1,1,1,1,5,2,3,3,2,3
200,PMM005-1-15,5,PMM005,1,15,3674,NA,NA,NA,NA,NA,NA,NA,NA,NA,NA,NA,-2.5,2.5,-2.5,-2.5,1,1,Black Lives Matter,Lift COVID lockdowns,0,0,-1,5,4,1,-2,-1,4,1.5,4,,4,1.5,1,27,0.949252778,Male,0,Bachelors degree,16,"$25,000-$49,999",2,Agnosticism,None,,Weak Democrat,2,Liberal,Slightly liberal,Sometimes,2,1,0,1,0,0,0,1,0,3,1,1,1,1,1,5,3,3,3,3,3
201,PMM005-1-16,5,PMM005,1,16,3384,NA,NA,NA,NA,NA,NA,NA,NA,NA,NA,NA,1.5,-1.5,-1.5,-1.5,1,1,U.S. drone strikes in Afghanistan,Remove Christopher Columbus statues,1,1,-1,3,4,3,-1,1,1,2.5,2.5,,2.5,1,1,27,0.949252778,Male,0,Bachelors degree,16,"$25,000-$49,999",2,Agnosticism,None,,Weak Democrat,2,Liberal,Slightly liberal,Sometimes,2,1,0,1,0,0,0,1,0,3,1,1,1,1,1,5,2,2,2,2,2
202,PMM005-1-17,5,PMM005,1,17,2579,NA,NA,NA,NA,NA,NA,NA,NA,NA,NA,NA,-0.5,0.5,0.5,0.5,4,4,Increased Gun regulations,Build southern border wall,1,1,1,5,1,2,-1,4,3,2.5,3,,2.5,3,1,27,0.949252778,Male,0,Bachelors degree,16,"$25,000-$49,999",2,Agnosticism,None,,Weak Democrat,2,Liberal,Slightly liberal,Sometimes,2,1,0,1,0,0,0,1,0,3,1,1,1,1,1,5,2,2,2,2,2
203,PMM005-1-18,5,PMM005,1,18,2490,NA,NA,NA,NA,NA,NA,NA,NA,NA,NA,NA,-2,2,2,2,2,2,Abortion rights,Abolishing fraternities,1,1,1,5,3,2,-2,2,4,2,4,,2,4,1,27,0.949252778,Male,0,Bachelors degree,16,"$25,000-$49,999",2,Agnosticism,None,,Weak Democrat,2,Liberal,Slightly liberal,Sometimes,2,1,0,1,0,0,0,1,0,3,1,1,1,1,1,5,1,3,3,1,3
204,PMM005-1-19,5,PMM005,1,19,3940,NA,NA,NA,NA,NA,NA,NA,NA,NA,NA,NA,0.5,-0.5,-0.5,-0.5,2,2,Remove public Confederate memorials,Ban on research with animals,1,1,1,4,2,0,-1,2,2,2.5,2.5,,2.5,2,1,27,0.949252778,Male,0,Bachelors degree,16,"$25,000-$49,999",2,Agnosticism,None,,Weak Democrat,2,Liberal,Slightly liberal,Sometimes,2,1,0,1,0,0,0,1,0,3,1,1,1,1,1,5,2,3,3,2,2
205,PMM005-1-2,5,PMM005,1,2,3518,NA,NA,NA,NA,NA,NA,NA,NA,NA,NA,NA,1.5,-1.5,1.5,-1.5,1,-1,Gun-free campus police,Abolishing private prisons,0,0,-1,5,6,3,-2,1,2.5,4,4,,2.5,4,0,27,0.949252778,Male,0,Bachelors degree,16,"$25,000-$49,999",2,Agnosticism,None,,Weak Democrat,2,Liberal,Slightly liberal,Sometimes,2,1,0,1,0,0,0,1,0,3,1,1,1,1,1,5,2,3,2,3,3
206,PMM005-1-20,5,PMM005,1,20,3694,NA,NA,NA,NA,NA,NA,NA,NA,NA,NA,NA,0,0,0,0,3,3,Mandatory training on sexual consent,Tuition increases,0,0,-1,4,1,2,-1,-3,3,3,3,,3,3,1,27,0.949252778,Male,0,Bachelors degree,16,"$25,000-$49,999",2,Agnosticism,None,,Weak Democrat,2,Liberal,Slightly liberal,Sometimes,2,1,0,1,0,0,0,1,0,3,1,1,1,1,1,5,2,4,2,4,4
207,PMM005-1-22,5,PMM005,1,22,3750,NA,NA,NA,NA,NA,NA,NA,NA,NA,NA,NA,-1.5,1.5,-1.5,-1.5,2,2,Abolishing private prisons,Remove Christopher Columbus statues,0,0,-1,6,4,3,0,-2,4,2.5,4,,4,2.5,1,27,0.949252778,Male,0,Bachelors degree,16,"$25,000-$49,999",2,Agnosticism,None,,Weak Democrat,2,Liberal,Slightly liberal,Sometimes,2,1,0,1,0,0,0,1,0,3,1,1,1,1,1,5,3,2,3,2,3
208,PMM005-1-23,5,PMM005,1,23,3978,NA,NA,NA,NA,NA,NA,NA,NA,NA,NA,NA,4,-4,-4,-4,3,3,"Boycott, Divest, and Sanction Israel",Stop police brutality,1,1,-1,3,6,0,-2,3,1,5,5,,5,1,1,27,0.949252778,Male,0,Bachelors degree,16,"$25,000-$49,999",2,Agnosticism,None,,Weak Democrat,2,Liberal,Slightly liberal,Sometimes,2,1,0,1,0,0,0,1,0,3,1,1,1,1,1,5,3,2,2,3,3
209,PMM005-1-24,5,PMM005,1,24,2045,NA,NA,NA,NA,NA,NA,NA,NA,NA,NA,NA,0.5,-0.5,-0.5,-0.5,5,5,Abolishing private prisons,War on Drugs,1,1,1,6,1,2,-1,5,4,4.5,4.5,,4.5,4,1,27,0.949252778,Male,0,Bachelors degree,16,"$25,000-$49,999",2,Agnosticism,None,,Weak Democrat,2,Liberal,Slightly liberal,Sometimes,2,1,0,1,0,0,0,1,0,3,1,1,1,1,1,5,3,3,3,3,3
210,PMM005-1-3,5,PMM005,1,3,3138,NA,NA,NA,NA,NA,NA,NA,NA,NA,NA,NA,2,-2,2,2,2,2,Mandatory trigger warnings,Mandatory training on sexual consent,0,0,1,2,4,2,1,-2,1,3,3,,1,3,1,27,0.949252778,Male,0,Bachelors degree,16,"$25,000-$49,999",2,Agnosticism,None,,Weak Democrat,2,Liberal,Slightly liberal,Sometimes,2,1,0,1,0,0,0,1,0,3,1,1,1,1,1,5,1,2,1,2,2
211,PMM005-1-4,5,PMM005,1,4,2716,NA,NA,NA,NA,NA,NA,NA,NA,NA,NA,NA,-2.5,2.5,-2.5,-2.5,2,2,War on Drugs,Physician-assisted suicide,0,0,1,1,3,2,-1,-2,4.5,2,4.5,,4.5,2,1,27,0.949252778,Male,0,Bachelors degree,16,"$25,000-$49,999",2,Agnosticism,None,,Weak Democrat,2,Liberal,Slightly liberal,Sometimes,2,1,0,1,0,0,0,1,0,3,1,1,1,1,1,5,3,2,3,2,3
212,PMM005-1-6,5,PMM005,1,6,3518,NA,NA,NA,NA,NA,NA,NA,NA,NA,NA,NA,2.5,-2.5,-2.5,-2.5,2,2,Remove Christopher Columbus statues,Stop police brutality,1,1,-1,4,6,-3,-2,2,2.5,5,5,,5,2.5,1,27,0.949252778,Male,0,Bachelors degree,16,"$25,000-$49,999",2,Agnosticism,None,,Weak Democrat,2,Liberal,Slightly liberal,Sometimes,2,1,0,1,0,0,0,1,0,3,1,1,1,1,1,5,3,2,2,3,3
213,PMM005-1-7,5,PMM005,1,7,3753,NA,NA,NA,NA,NA,NA,NA,NA,NA,NA,NA,0.5,-0.5,-0.5,-0.5,3,3,Build southern border wall,Mandatory training on sexual consent,1,1,-1,1,4,2,-1,3,2.5,3,3,,3,2.5,1,27,0.949252778,Male,0,Bachelors degree,16,"$25,000-$49,999",2,Agnosticism,None,,Weak Democrat,2,Liberal,Slightly liberal,Sometimes,2,1,0,1,0,0,0,1,0,3,1,1,1,1,1,5,2,2,2,2,2
214,PMM005-1-8,5,PMM005,1,8,2507,NA,NA,NA,NA,NA,NA,NA,NA,NA,NA,NA,-1,1,-1,-1,3,3,War on Drugs,Climate change legislation,0,0,1,1,4,2,3,-3,4.5,3.5,4.5,,4.5,3.5,1,27,0.949252778,Male,0,Bachelors degree,16,"$25,000-$49,999",2,Agnosticism,None,,Weak Democrat,2,Liberal,Slightly liberal,Sometimes,2,1,0,1,0,0,0,1,0,3,1,1,1,1,1,5,3,3,3,3,3
215,PMM005-1-9,5,PMM005,1,9,3193,NA,NA,NA,NA,NA,NA,NA,NA,NA,NA,NA,3,-3,3,3,4,4,Mandatory trigger warnings,Abolishing private prisons,0,0,1,2,6,2,-3,-4,1,4,4,,1,4,1,27,0.949252778,Male,0,Bachelors degree,16,"$25,000-$49,999",2,Agnosticism,None,,Weak Democrat,2,Liberal,Slightly liberal,Sometimes,2,1,0,1,0,0,0,1,0,3,1,1,1,1,1,5,1,3,1,3,3
216,PMM005-2-1,5,PMM005,2,1,3985,NA,NA,NA,NA,NA,NA,NA,NA,NA,NA,NA,-0.5,0.5,0.5,-0.5,2,-2,Lift COVID lockdowns,Mandatory trigger warnings,1,1,-1,4,2,1,0,-2,1.5,1,1.5,,1,1.5,0,27,0.949252778,Male,0,Bachelors degree,16,"$25,000-$49,999",2,Agnosticism,None,,Weak Democrat,2,Liberal,Slightly liberal,Sometimes,2,1,0,1,0,0,0,1,0,3,1,1,1,1,1,5,1,3,3,1,3
217,PMM005-2-10,5,PMM005,2,10,3740,NA,NA,NA,NA,NA,NA,NA,NA,NA,NA,NA,1,-1,-1,-1,2,2,Defund the police,Ban on research with animals,1,1,1,4,2,-2,-1,2,1.5,2.5,2.5,,2.5,1.5,1,27,0.949252778,Male,0,Bachelors degree,16,"$25,000-$49,999",2,Agnosticism,None,,Weak Democrat,2,Liberal,Slightly liberal,Sometimes,2,1,0,1,0,0,0,1,0,3,1,1,1,1,1,5,2,2,2,2,2
218,PMM005-2-11,5,PMM005,2,11,3525,NA,NA,NA,NA,NA,NA,NA,NA,NA,NA,NA,1,-1,1,1,2,2,Remove police from schools,Black Lives Matter,0,0,1,3,5,-1,-2,-2,3,4,4,,3,4,1,27,0.949252778,Male,0,Bachelors degree,16,"$25,000-$49,999",2,Agnosticism,None,,Weak Democrat,2,Liberal,Slightly liberal,Sometimes,2,1,0,1,0,0,0,1,0,3,1,1,1,1,1,5,2,3,2,3,3
219,PMM005-2-13,5,PMM005,2,13,2240,NA,NA,NA,NA,NA,NA,NA,NA,NA,NA,NA,0.5,-0.5,-0.5,-0.5,4,4,Abortion rights,War on Drugs,1,1,1,5,1,2,0,4,4,4.5,4.5,,4.5,4,1,27,0.949252778,Male,0,Bachelors degree,16,"$25,000-$49,999",2,Agnosticism,None,,Weak Democrat,2,Liberal,Slightly liberal,Sometimes,2,1,0,1,0,0,0,1,0,3,1,1,1,1,1,5,3,3,3,3,3
220,PMM005-2-14,5,PMM005,2,14,2672,NA,NA,NA,NA,NA,NA,NA,NA,NA,NA,NA,3,-3,3,3,2,2,Affirmative action,Black Lives Matter,0,0,1,3,5,1,2,-2,1,4,4,,1,4,1,27,0.949252778,Male,0,Bachelors degree,16,"$25,000-$49,999",2,Agnosticism,None,,Weak Democrat,2,Liberal,Slightly liberal,Sometimes,2,1,0,1,0,0,0,1,0,3,1,1,1,1,1,5,2,3,2,3,3
221,PMM005-2-15,5,PMM005,2,15,3831,NA,NA,NA,NA,NA,NA,NA,NA,NA,NA,NA,2,-2,-2,2,1,-1,Ban on research with animals,War on Drugs,1,1,-1,2,1,2,1,-1,2.5,4.5,4.5,,4.5,2.5,0,27,0.949252778,Male,0,Bachelors degree,16,"$25,000-$49,999",2,Agnosticism,None,,Weak Democrat,2,Liberal,Slightly liberal,Sometimes,2,1,0,1,0,0,0,1,0,3,1,1,1,1,1,5,3,2,2,3,3
222,PMM005-2-17,5,PMM005,2,17,2932,NA,NA,NA,NA,NA,NA,NA,NA,NA,NA,NA,1,-1,1,1,3,3,Lift COVID lockdowns,Build southern border wall,0,0,-1,4,1,1,-2,-3,1.5,2.5,2.5,,1.5,2.5,1,27,0.949252778,Male,0,Bachelors degree,16,"$25,000-$49,999",2,Agnosticism,None,,Weak Democrat,2,Liberal,Slightly liberal,Sometimes,2,1,0,1,0,0,0,1,0,3,1,1,1,1,1,5,3,2,3,2,2
223,PMM005-2-18,5,PMM005,2,18,3048,NA,NA,NA,NA,NA,NA,NA,NA,NA,NA,NA,-0.5,0.5,-0.5,-0.5,1,1,Climate change legislation,Remove police from schools,0,0,-1,4,3,3,0,-1,3.5,3,3.5,,3.5,3,1,27,0.949252778,Male,0,Bachelors degree,16,"$25,000-$49,999",2,Agnosticism,None,,Weak Democrat,2,Liberal,Slightly liberal,Sometimes,2,1,0,1,0,0,0,1,0,3,1,1,1,1,1,5,3,2,3,2,3
224,PMM005-2-19,5,PMM005,2,19,3695,NA,NA,NA,NA,NA,NA,NA,NA,NA,NA,NA,-1,1,1,-1,1,-1,Gun-free campus police,Defund the police,1,1,-1,5,4,2,-2,-1,2.5,1.5,2.5,,1.5,2.5,0,27,0.949252778,Male,0,Bachelors degree,16,"$25,000-$49,999",2,Agnosticism,None,,Weak Democrat,2,Liberal,Slightly liberal,Sometimes,2,1,0,1,0,0,0,1,0,3,1,1,1,1,1,5,2,2,2,2,2
225,PMM005-2-21,5,PMM005,2,21,3410,NA,NA,NA,NA,NA,NA,NA,NA,NA,NA,NA,0.5,-0.5,-0.5,-0.5,1,1,Ban on ethnic Halloween costumes,Abortion rights,1,1,-1,4,5,-3,1,1,3.5,4,4,,4,3.5,1,27,0.949252778,Male,0,Bachelors degree,16,"$25,000-$49,999",2,Agnosticism,None,,Weak Democrat,2,Liberal,Slightly liberal,Sometimes,2,1,0,1,0,0,0,1,0,3,1,1,1,1,1,5,3,3,3,3,3
226,PMM005-2-22,5,PMM005,2,22,2756,NA,NA,NA,NA,NA,NA,NA,NA,NA,NA,NA,1,-1,1,-1,1,-1,Gun-free campus police,Climate change legislation,0,0,1,5,4,3,0,1,2.5,3.5,3.5,,2.5,3.5,0,27,0.949252778,Male,0,Bachelors degree,16,"$25,000-$49,999",2,Agnosticism,None,,Weak Democrat,2,Liberal,Slightly liberal,Sometimes,2,1,0,1,0,0,0,1,0,3,1,1,1,1,1,5,2,3,2,3,3
227,PMM005-2-23,5,PMM005,2,23,3109,NA,NA,NA,NA,NA,NA,NA,NA,NA,NA,NA,-1.5,1.5,-1.5,-1.5,1,1,Increased Gun regulations,Lift COVID lockdowns,0,0,-1,5,4,2,0,-1,3,1.5,3,,3,1.5,1,27,0.949252778,Male,0,Bachelors degree,16,"$25,000-$49,999",2,Agnosticism,None,,Weak Democrat,2,Liberal,Slightly liberal,Sometimes,2,1,0,1,0,0,0,1,0,3,1,1,1,1,1,5,2,3,2,3,2
228,PMM005-2-24,5,PMM005,2,24,2868,NA,NA,NA,NA,NA,NA,NA,NA,NA,NA,NA,-0.5,0.5,0.5,0.5,3,3,Increased Gun regulations,Ban on research with animals,1,1,1,5,2,0,-2,3,3,2.5,3,,2.5,3,1,27,0.949252778,Male,0,Bachelors degree,16,"$25,000-$49,999",2,Agnosticism,None,,Weak Democrat,2,Liberal,Slightly liberal,Sometimes,2,1,0,1,0,0,0,1,0,3,1,1,1,1,1,5,2,2,2,2,2
229,PMM005-2-3,5,PMM005,2,3,3064,NA,NA,NA,NA,NA,NA,NA,NA,NA,NA,NA,0.5,-0.5,0.5,-0.5,1,-1,Gun-free campus police,Mandatory training on sexual consent,0,0,1,5,4,3,1,1,2.5,3,3,,2.5,3,0,27,0.949252778,Male,0,Bachelors degree,16,"$25,000-$49,999",2,Agnosticism,None,,Weak Democrat,2,Liberal,Slightly liberal,Sometimes,2,1,0,1,0,0,0,1,0,3,1,1,1,1,1,5,2,2,2,2,2
230,PMM005-2-4,5,PMM005,2,4,3487,NA,NA,NA,NA,NA,NA,NA,NA,NA,NA,NA,-0.5,0.5,-0.5,-0.5,1,1,Increased Gun regulations,Remove Christopher Columbus statues,0,0,-1,5,4,2,1,-1,3,2.5,3,,3,2.5,1,27,0.949252778,Male,0,Bachelors degree,16,"$25,000-$49,999",2,Agnosticism,None,,Weak Democrat,2,Liberal,Slightly liberal,Sometimes,2,1,0,1,0,0,0,1,0,3,1,1,1,1,1,5,2,2,2,2,2
231,PMM005-2-5,5,PMM005,2,5,3488,NA,NA,NA,NA,NA,NA,NA,NA,NA,NA,NA,-1,1,-1,-1,5,5,Hardening schools/Arming teachers,Legalization of marijuana,0,0,1,1,6,0,-1,-5,3,2,3,,3,2,1,27,0.949252778,Male,0,Bachelors degree,16,"$25,000-$49,999",2,Agnosticism,None,,Weak Democrat,2,Liberal,Slightly liberal,Sometimes,2,1,0,1,0,0,0,1,0,3,1,1,1,1,1,5,2,4,2,4,2
232,PMM005-2-6,5,PMM005,2,6,3629,NA,NA,NA,NA,NA,NA,NA,NA,NA,NA,NA,0,0,0,0,2,-2,Raise the minimum wage,Legalization of marijuana,1,1,1,4,6,2,-1,-2,2,2,2,,2,2,0,27,0.949252778,Male,0,Bachelors degree,16,"$25,000-$49,999",2,Agnosticism,None,,Weak Democrat,2,Liberal,Slightly liberal,Sometimes,2,1,0,1,0,0,0,1,0,3,1,1,1,1,1,5,4,3,3,4,4
233,PMM005-2-7,5,PMM005,2,7,2504,NA,NA,NA,NA,NA,NA,NA,NA,NA,NA,NA,0.5,-0.5,0.5,0.5,2,2,Ban on research with animals,Mandatory training on sexual consent,0,0,1,2,4,1,-1,-2,2.5,3,3,,2.5,3,1,27,0.949252778,Male,0,Bachelors degree,16,"$25,000-$49,999",2,Agnosticism,None,,Weak Democrat,2,Liberal,Slightly liberal,Sometimes,2,1,0,1,0,0,0,1,0,3,1,1,1,1,1,5,2,2,2,2,2
234,PMM005-2-8,5,PMM005,2,8,3905,NA,NA,NA,NA,NA,NA,NA,NA,NA,NA,NA,0,0,0,0,1,-1,Abolishing private prisons,Black Lives Matter,0,0,1,6,5,2,-1,1,4,4,4,,4,4,0,27,0.949252778,Male,0,Bachelors degree,16,"$25,000-$49,999",2,Agnosticism,None,,Weak Democrat,2,Liberal,Slightly liberal,Sometimes,2,1,0,1,0,0,0,1,0,3,1,1,1,1,1,5,3,3,3,3,3
235,PMM005-2-9,5,PMM005,2,9,3541,NA,NA,NA,NA,NA,NA,NA,NA,NA,NA,NA,1.5,-1.5,1.5,1.5,1,1,Remove Christopher Columbus statues,Abortion rights,0,0,1,4,5,0,-1,-1,2.5,4,4,,2.5,4,1,27,0.949252778,Male,0,Bachelors degree,16,"$25,000-$49,999",2,Agnosticism,None,,Weak Democrat,2,Liberal,Slightly liberal,Sometimes,2,1,0,1,0,0,0,1,0,3,1,1,1,1,1,5,2,3,2,3,3
236,PMM005-3-1,5,PMM005,3,1,3318,NA,NA,NA,NA,NA,NA,NA,NA,NA,NA,NA,0.5,-0.5,-0.5,-0.5,5,5,War on Drugs,Stop police brutality,1,1,-1,1,6,1,3,5,4.5,5,5,,5,4.5,1,27,0.949252778,Male,0,Bachelors degree,16,"$25,000-$49,999",2,Agnosticism,None,,Weak Democrat,2,Liberal,Slightly liberal,Sometimes,2,1,0,1,0,0,0,1,0,3,1,1,1,1,1,5,3,3,3,3,3
237,PMM005-3-11,5,PMM005,3,11,3030,NA,NA,NA,NA,NA,NA,NA,NA,NA,NA,NA,-0.5,0.5,0.5,-0.5,1,-1,Tuition increases,Ban on research with animals,1,1,1,1,2,1,-1,-1,3,2.5,3,,2.5,3,0,27,0.949252778,Male,0,Bachelors degree,16,"$25,000-$49,999",2,Agnosticism,None,,Weak Democrat,2,Liberal,Slightly liberal,Sometimes,2,1,0,1,0,0,0,1,0,3,1,1,1,1,1,5,2,4,4,2,4
238,PMM005-3-12,5,PMM005,3,12,2701,NA,NA,NA,NA,NA,NA,NA,NA,NA,NA,NA,1.5,-1.5,1.5,1.5,3,3,Mandatory training on sexual consent,War on Drugs,0,0,-1,4,1,1,-1,-3,3,4.5,4.5,,3,4.5,1,27,0.949252778,Male,0,Bachelors degree,16,"$25,000-$49,999",2,Agnosticism,None,,Weak Democrat,2,Liberal,Slightly liberal,Sometimes,2,1,0,1,0,0,0,1,0,3,1,1,1,1,1,5,2,3,2,3,3
239,PMM005-3-13,5,PMM005,3,13,1926,NA,NA,NA,NA,NA,NA,NA,NA,NA,NA,NA,-0.5,0.5,-0.5,-0.5,2,2,Remove police from schools,Build southern border wall,0,0,-1,3,1,0,-2,-2,3,2.5,3,,3,2.5,1,27,0.949252778,Male,0,Bachelors degree,16,"$25,000-$49,999",2,Agnosticism,None,,Weak Democrat,2,Liberal,Slightly liberal,Sometimes,2,1,0,1,0,0,0,1,0,3,1,1,1,1,1,5,2,2,2,2,2
240,PMM005-3-14,5,PMM005,3,14,2110,NA,NA,NA,NA,NA,NA,NA,NA,NA,NA,NA,-2,2,2,2,4,4,Increased Gun regulations,Defund Planned Parenthood,1,1,1,5,1,0,-2,4,3,1,3,,1,3,1,27,0.949252778,Male,0,Bachelors degree,16,"$25,000-$49,999",2,Agnosticism,None,,Weak Democrat,2,Liberal,Slightly liberal,Sometimes,2,1,0,1,0,0,0,1,0,3,1,1,1,1,1,5,1,2,2,1,2
241,PMM005-3-15,5,PMM005,3,15,3319,NA,NA,NA,NA,NA,NA,NA,NA,NA,NA,NA,0,0,0,0,1,-1,Safe injection locations,Remove public Confederate memorials,0,0,-1,3,4,-2,-1,1,2,2,2,,2,2,0,27,0.949252778,Male,0,Bachelors degree,16,"$25,000-$49,999",2,Agnosticism,None,,Weak Democrat,2,Liberal,Slightly liberal,Sometimes,2,1,0,1,0,0,0,1,0,3,1,1,1,1,1,5,2,3,2,3,3
242,PMM005-3-16,5,PMM005,3,16,1768,NA,NA,NA,NA,NA,NA,NA,NA,NA,NA,NA,1,-1,1,1,5,5,Defund Planned Parenthood,Legalization of marijuana,0,0,1,1,6,2,-1,-5,1,2,2,,1,2,1,27,0.949252778,Male,0,Bachelors degree,16,"$25,000-$49,999",2,Agnosticism,None,,Weak Democrat,2,Liberal,Slightly liberal,Sometimes,2,1,0,1,0,0,0,1,0,3,1,1,1,1,1,5,1,4,1,4,4
243,PMM005-3-17,5,PMM005,3,17,3405,NA,NA,NA,NA,NA,NA,NA,NA,NA,NA,NA,-1,1,-1,1,1,-1,Stop police brutality,Abortion rights,0,0,1,6,5,2,0,1,5,4,5,,5,4,0,27,0.949252778,Male,0,Bachelors degree,16,"$25,000-$49,999",2,Agnosticism,None,,Weak Democrat,2,Liberal,Slightly liberal,Sometimes,2,1,0,1,0,0,0,1,0,3,1,1,1,1,1,5,3,3,3,3,3
244,PMM005-3-20,5,PMM005,3,20,2666,NA,NA,NA,NA,NA,NA,NA,NA,NA,NA,NA,3.5,-3.5,3.5,3.5,1,1,Mandatory trigger warnings,War on Drugs,0,0,-1,2,1,2,-2,-1,1,4.5,4.5,,1,4.5,1,27,0.949252778,Male,0,Bachelors degree,16,"$25,000-$49,999",2,Agnosticism,None,,Weak Democrat,2,Liberal,Slightly liberal,Sometimes,2,1,0,1,0,0,0,1,0,3,1,1,1,1,1,5,1,3,1,3,3
245,PMM005-3-21,5,PMM005,3,21,2883,NA,NA,NA,NA,NA,NA,NA,NA,NA,NA,NA,1,-1,1,-1,1,-1,Increased Gun regulations,Abolishing private prisons,0,0,-1,5,6,0,1,1,3,4,4,,3,4,0,27,0.949252778,Male,0,Bachelors degree,16,"$25,000-$49,999",2,Agnosticism,None,,Weak Democrat,2,Liberal,Slightly liberal,Sometimes,2,1,0,1,0,0,0,1,0,3,1,1,1,1,1,5,2,3,2,3,3
246,PMM005-3-22,5,PMM005,3,22,3410,NA,NA,NA,NA,NA,NA,NA,NA,NA,NA,NA,-1.5,1.5,-1.5,-1.5,2,2,Build southern border wall,Recognize Jerusalem as capital of Israel,0,0,1,1,3,3,-2,-2,2.5,1,2.5,,2.5,1,1,27,0.949252778,Male,0,Bachelors degree,16,"$25,000-$49,999",2,Agnosticism,None,,Weak Democrat,2,Liberal,Slightly liberal,Sometimes,2,1,0,1,0,0,0,1,0,3,1,1,1,1,1,5,2,2,2,2,2
247,PMM005-3-24,5,PMM005,3,24,2496,NA,NA,NA,NA,NA,NA,NA,NA,NA,NA,NA,1,-1,1,1,3,3,Raise the minimum wage,Hardening schools/Arming teachers,0,0,-1,4,1,2,1,-3,2,3,3,,2,3,1,27,0.949252778,Male,0,Bachelors degree,16,"$25,000-$49,999",2,Agnosticism,None,,Weak Democrat,2,Liberal,Slightly liberal,Sometimes,2,1,0,1,0,0,0,1,0,3,1,1,1,1,1,5,3,2,3,2,2
248,PMM005-3-3,5,PMM005,3,3,2462,NA,NA,NA,NA,NA,NA,NA,NA,NA,NA,NA,2.5,-2.5,-2.5,-2.5,2,2,Mandatory trigger warnings,Climate change legislation,1,1,-1,2,4,1,-1,2,1,3.5,3.5,,3.5,1,1,27,0.949252778,Male,0,Bachelors degree,16,"$25,000-$49,999",2,Agnosticism,None,,Weak Democrat,2,Liberal,Slightly liberal,Sometimes,2,1,0,1,0,0,0,1,0,3,1,1,1,1,1,5,3,1,1,3,3
249,PMM005-3-4,5,PMM005,3,4,3297,NA,NA,NA,NA,NA,NA,NA,NA,NA,NA,NA,0,0,0,0,2,-2,Remove Christopher Columbus statues,Ban on research with animals,1,1,-1,4,2,2,-1,-2,2.5,2.5,2.5,,2.5,2.5,0,27,0.949252778,Male,0,Bachelors degree,16,"$25,000-$49,999",2,Agnosticism,None,,Weak Democrat,2,Liberal,Slightly liberal,Sometimes,2,1,0,1,0,0,0,1,0,3,1,1,1,1,1,5,2,2,2,2,2
250,PMM005-3-5,5,PMM005,3,5,2930,NA,NA,NA,NA,NA,NA,NA,NA,NA,NA,NA,0.5,-0.5,0.5,0.5,1,1,Remove Christopher Columbus statues,Remove police from schools,0,0,-1,4,3,0,-2,-1,2.5,3,3,,2.5,3,1,27,0.949252778,Male,0,Bachelors degree,16,"$25,000-$49,999",2,Agnosticism,None,,Weak Democrat,2,Liberal,Slightly liberal,Sometimes,2,1,0,1,0,0,0,1,0,3,1,1,1,1,1,5,2,2,2,2,2
251,PMM005-3-6,5,PMM005,3,6,2774,NA,NA,NA,NA,NA,NA,NA,NA,NA,NA,NA,-2,2,2,-2,1,-1,Black Lives Matter,Legalization of marijuana,1,1,1,5,6,1,0,-1,4,2,4,,2,4,0,27,0.949252778,Male,0,Bachelors degree,16,"$25,000-$49,999",2,Agnosticism,None,,Weak Democrat,2,Liberal,Slightly liberal,Sometimes,2,1,0,1,0,0,0,1,0,3,1,1,1,1,1,5,4,3,3,4,3
252,PMM005-3-8,5,PMM005,3,8,3227,NA,NA,NA,NA,NA,NA,NA,NA,NA,NA,NA,0,0,0,0,2,2,Hardening schools/Arming teachers,Remove police from schools,0,0,1,1,3,2,-3,-2,3,3,3,,3,3,1,27,0.949252778,Male,0,Bachelors degree,16,"$25,000-$49,999",2,Agnosticism,None,,Weak Democrat,2,Liberal,Slightly liberal,Sometimes,2,1,0,1,0,0,0,1,0,3,1,1,1,1,1,5,2,2,2,2,2
253,PMM005-4-1,5,PMM005,4,1,3486,NA,NA,NA,NA,NA,NA,NA,NA,NA,NA,NA,-3,3,-3,-3,2,2,Stop police brutality,Remove public Confederate memorials,0,0,-1,6,4,-3,2,-2,5,2,5,,5,2,1,27,0.949252778,Male,0,Bachelors degree,16,"$25,000-$49,999",2,Agnosticism,None,,Weak Democrat,2,Liberal,Slightly liberal,Sometimes,2,1,0,1,0,0,0,1,0,3,1,1,1,1,1,5,3,3,3,3,3
254,PMM005-4-10,5,PMM005,4,10,3453,NA,NA,NA,NA,NA,NA,NA,NA,NA,NA,NA,1,-1,1,-1,1,-1,Mandatory trigger warnings,Abolishing fraternities,0,0,-1,2,3,1,-1,1,1,2,2,,1,2,0,27,0.949252778,Male,0,Bachelors degree,16,"$25,000-$49,999",2,Agnosticism,None,,Weak Democrat,2,Liberal,Slightly liberal,Sometimes,2,1,0,1,0,0,0,1,0,3,1,1,1,1,1,5,1,1,1,1,1
255,PMM005-4-11,5,PMM005,4,11,2756,NA,NA,NA,NA,NA,NA,NA,NA,NA,NA,NA,1,-1,1,1,5,5,Hardening schools/Arming teachers,Abolishing private prisons,0,0,1,1,6,2,0,-5,3,4,4,,3,4,1,27,0.949252778,Male,0,Bachelors degree,16,"$25,000-$49,999",2,Agnosticism,None,,Weak Democrat,2,Liberal,Slightly liberal,Sometimes,2,1,0,1,0,0,0,1,0,3,1,1,1,1,1,5,2,3,2,3,3
256,PMM005-4-12,5,PMM005,4,12,3261,NA,NA,NA,NA,NA,NA,NA,NA,NA,NA,NA,-2,2,2,2,1,1,Tuition increases,Mandatory trigger warnings,1,1,-1,1,2,2,-2,1,3,1,3,,1,3,1,27,0.949252778,Male,0,Bachelors degree,16,"$25,000-$49,999",2,Agnosticism,None,,Weak Democrat,2,Liberal,Slightly liberal,Sometimes,2,1,0,1,0,0,0,1,0,3,1,1,1,1,1,5,1,4,4,1,4
